view_history,rt,trial_type,trial_index,plugin_version,time_elapsed,subjectID,studyID,sessionID,overallBonusPoints,task,response,question_order,success,Matrix,S,T,R,P,GameType,choice,GivenAns,Player,PlayerType,CorrAns,confidence,ScoreNum,time_on_trial,stimulus
[{"page_index":0,"viewing_time":25004},{"page_index":1,"viewing_time":1538}],26542,instructions,0,2.1.0,26550,0enj4c49hf,692638df063c96e069476515,693265a63818e4fb64e249bd,39,,,,,,,,,,,,,,,,,,,
[{"page_index":0,"viewing_time":259719}],259720,instructions,1,2.1.0,286271,0enj4c49hf,692638df063c96e069476515,693265a63818e4fb64e249bd,39,,,,,,,,,,,,,,,,,,,
[{"page_index":0,"viewing_time":5311}],5311,instructions,2,2.1.0,291583,0enj4c49hf,692638df063c96e069476515,693265a63818e4fb64e249bd,39,,,,,,,,,,,,,,,,,,,
,14633,survey-multi-choice,3,null,306219,0enj4c49hf,692638df063c96e069476515,693265a63818e4fb64e249bd,39,comprehensionCheck,{"task":"Choose the option the anonymized participant chose","incentive":"Yes—they received bonuses based on their performance"},[0,1],,,,,,,,,,,,,,,,
,1751,fullscreen,4,2.1.0,308981,0enj4c49hf,692638df063c96e069476515,693265a63818e4fb64e249bd,39,,,,true,,,,,,,,,,,,,,,
[{"page_index":0,"viewing_time":4350}],4350,instructions,5,2.1.0,313333,0enj4c49hf,692638df063c96e069476515,693265a63818e4fb64e249bd,39,,,,,,,,,,,,,,,,,,,
,,html-keyboard-response,6,2.0.0,323601,0enj4c49hf,692638df063c96e069476515,693265a63818e4fb64e249bd,39,playOwnGame,,,,{"R":10,"P":5,"S":10,"T":5},10,5,10,5,HG,Red,coop,,,,,,,
,,html-keyboard-response,7,2.0.0,334375,0enj4c49hf,692638df063c96e069476515,693265a63818e4fb64e249bd,39,playOwnGame,,,,{"R":10,"P":5,"S":3,"T":5},3,5,10,5,SH,Red,coop,,,,,,,
,,html-keyboard-response,8,2.0.0,357081,0enj4c49hf,692638df063c96e069476515,693265a63818e4fb64e249bd,39,playOwnGame,,,,{"R":10,"P":5,"S":7,"T":15},7,15,10,5,SG,Blue,def,,,,,,,
,,html-keyboard-response,9,2.0.0,361015,0enj4c49hf,692638df063c96e069476515,693265a63818e4fb64e249bd,39,playOwnGame,,,,{"R":10,"P":5,"S":3,"T":12},3,12,10,5,PD,Blue,def,,,,,,,
[{"page_index":0,"viewing_time":2209}],2209,instructions,10,2.1.0,363225,0enj4c49hf,692638df063c96e069476515,693265a63818e4fb64e249bd,39,,,,,,,,,,,,,,,,,,,
,,html-keyboard-response,11,2.0.0,373699,0enj4c49hf,692638df063c96e069476515,693265a63818e4fb64e249bd,39,socialPredictionGame,,,,{"R":10,"P":5,"S":7,"T":8},7,8,10,5,HG,Red,coop,E.B.,opt_inv,def,7,0,10472.899999856949,
,1615,html-keyboard-response,12,2.0.0,375315,0enj4c49hf,692638df063c96e069476515,693265a63818e4fb64e249bd,39,feedbackTrial, ,,,,,,,,,,,,,,,,,
                    <div style="text-align:center;">
                        <p style="color:red; font-size:24px;">Incorrect</p><p>You still have 0 points.</p>
                        <p> Press any key to continue. </p>
                    </div>
                    
,,html-keyboard-response,13,2.0.0,380213,0enj4c49hf,692638df063c96e069476515,693265a63818e4fb64e249bd,39,socialPredictionGame,,,,{"R":10,"P":5,"S":10,"T":8},10,8,10,5,HG,Red,coop,E.B.,opt_inv,def,7,0,4895.299999952316,
,1920,html-keyboard-response,14,2.0.0,382133,0enj4c49hf,692638df063c96e069476515,693265a63818e4fb64e249bd,39,feedbackTrial, ,,,,,,,,,,,,,,,,,
                    <div style="text-align:center;">
                        <p style="color:red; font-size:24px;">Incorrect</p><p>You still have 0 points.</p>
                        <p> Press any key to continue. </p>
                    </div>
                    
,,html-keyboard-response,15,2.0.0,395775,0enj4c49hf,692638df063c96e069476515,693265a63818e4fb64e249bd,39,socialPredictionGame,,,,{"R":10,"P":5,"S":0,"T":5},0,5,10,5,SH,Purple,def,E.B.,opt_inv,def,4,1,13639.099999904633,
,1258,html-keyboard-response,16,2.0.0,397034,0enj4c49hf,692638df063c96e069476515,693265a63818e4fb64e249bd,39,feedbackTrial, ,,,,,,,,,,,,,,,,,
                    <div style="text-align:center;">
                        <p style="color:green; font-size:24px;">Correct!</p><p>You now have 1 points.</p>
                        <p> Press any key to continue. </p>
                    </div>
                    
,,html-keyboard-response,17,2.0.0,402321,0enj4c49hf,692638df063c96e069476515,693265a63818e4fb64e249bd,39,socialPredictionGame,,,,{"R":10,"P":5,"S":10,"T":5},10,5,10,5,HG,Red,coop,E.B.,opt_inv,def,10,0,5284.299999952316,
,1440,html-keyboard-response,18,2.0.0,403762,0enj4c49hf,692638df063c96e069476515,693265a63818e4fb64e249bd,39,feedbackTrial, ,,,,,,,,,,,,,,,,,
                    <div style="text-align:center;">
                        <p style="color:red; font-size:24px;">Incorrect</p><p>You still have 1 points.</p>
                        <p> Press any key to continue. </p>
                    </div>
                    
,,html-keyboard-response,19,2.0.0,407523,0enj4c49hf,692638df063c96e069476515,693265a63818e4fb64e249bd,39,socialPredictionGame,,,,{"R":10,"P":5,"S":0,"T":8},0,8,10,5,SH,Purple,def,E.B.,opt_inv,def,6,1,3758.2000000476837,
,1022,html-keyboard-response,20,2.0.0,408546,0enj4c49hf,692638df063c96e069476515,693265a63818e4fb64e249bd,39,feedbackTrial, ,,,,,,,,,,,,,,,,,
                    <div style="text-align:center;">
                        <p style="color:green; font-size:24px;">Correct!</p><p>You now have 2 points.</p>
                        <p> Press any key to continue. </p>
                    </div>
                    
,,html-keyboard-response,21,2.0.0,411505,0enj4c49hf,692638df063c96e069476515,693265a63818e4fb64e249bd,39,socialPredictionGame,,,,{"R":10,"P":5,"S":0,"T":12},0,12,10,5,PD,Purple,def,E.B.,opt_inv,coop,6,0,2956.2000000476837,
,1000,html-keyboard-response,22,2.0.0,412506,0enj4c49hf,692638df063c96e069476515,693265a63818e4fb64e249bd,39,feedbackTrial, ,,,,,,,,,,,,,,,,,
                    <div style="text-align:center;">
                        <p style="color:red; font-size:24px;">Incorrect</p><p>You still have 2 points.</p>
                        <p> Press any key to continue. </p>
                    </div>
                    
,,html-keyboard-response,23,2.0.0,418947,0enj4c49hf,692638df063c96e069476515,693265a63818e4fb64e249bd,39,socialPredictionGame,,,,{"R":10,"P":5,"S":7,"T":15},7,15,10,5,SG,Purple,def,E.B.,opt_inv,coop,6,0,6438,
,958,html-keyboard-response,24,2.0.0,419906,0enj4c49hf,692638df063c96e069476515,693265a63818e4fb64e249bd,39,feedbackTrial, ,,,,,,,,,,,,,,,,,
                    <div style="text-align:center;">
                        <p style="color:red; font-size:24px;">Incorrect</p><p>You still have 2 points.</p>
                        <p> Press any key to continue. </p>
                    </div>
                    
,,html-keyboard-response,25,2.0.0,422609,0enj4c49hf,692638df063c96e069476515,693265a63818e4fb64e249bd,39,socialPredictionGame,,,,{"R":10,"P":5,"S":10,"T":12},10,12,10,5,SG,Red,coop,E.B.,opt_inv,coop,5,1,2700.2999999523163,
,528,html-keyboard-response,26,2.0.0,423137,0enj4c49hf,692638df063c96e069476515,693265a63818e4fb64e249bd,39,feedbackTrial, ,,,,,,,,,,,,,,,,,
                    <div style="text-align:center;">
                        <p style="color:green; font-size:24px;">Correct!</p><p>You now have 3 points.</p>
                        <p> Press any key to continue. </p>
                    </div>
                    
,,html-keyboard-response,27,2.0.0,427495,0enj4c49hf,692638df063c96e069476515,693265a63818e4fb64e249bd,39,socialPredictionGame,,,,{"R":10,"P":5,"S":7,"T":5},7,5,10,5,HG,Red,coop,E.B.,opt_inv,def,5,0,4356.200000047684,
,533,html-keyboard-response,28,2.0.0,428029,0enj4c49hf,692638df063c96e069476515,693265a63818e4fb64e249bd,39,feedbackTrial, ,,,,,,,,,,,,,,,,,
                    <div style="text-align:center;">
                        <p style="color:red; font-size:24px;">Incorrect</p><p>You still have 3 points.</p>
                        <p> Press any key to continue. </p>
                    </div>
                    
,,html-keyboard-response,29,2.0.0,432157,0enj4c49hf,692638df063c96e069476515,693265a63818e4fb64e249bd,39,socialPredictionGame,,,,{"R":10,"P":5,"S":3,"T":12},3,12,10,5,PD,Purple,def,E.B.,opt_inv,coop,4,0,4125.299999952316,
,437,html-keyboard-response,30,2.0.0,432595,0enj4c49hf,692638df063c96e069476515,693265a63818e4fb64e249bd,39,feedbackTrial, ,,,,,,,,,,,,,,,,,
                    <div style="text-align:center;">
                        <p style="color:red; font-size:24px;">Incorrect</p><p>You still have 3 points.</p>
                        <p> Press any key to continue. </p>
                    </div>
                    
,,html-keyboard-response,31,2.0.0,435457,0enj4c49hf,692638df063c96e069476515,693265a63818e4fb64e249bd,39,socialPredictionGame,,,,{"R":10,"P":5,"S":7,"T":12},7,12,10,5,SG,Red,coop,E.B.,opt_inv,coop,5,1,2858.800000190735,
,481,html-keyboard-response,32,2.0.0,435938,0enj4c49hf,692638df063c96e069476515,693265a63818e4fb64e249bd,39,feedbackTrial, ,,,,,,,,,,,,,,,,,
                    <div style="text-align:center;">
                        <p style="color:green; font-size:24px;">Correct!</p><p>You now have 4 points.</p>
                        <p> Press any key to continue. </p>
                    </div>
                    
,,html-keyboard-response,33,2.0.0,438951,0enj4c49hf,692638df063c96e069476515,693265a63818e4fb64e249bd,39,socialPredictionGame,,,,{"R":10,"P":5,"S":10,"T":15},10,15,10,5,SG,Red,coop,E.B.,opt_inv,coop,4,1,3010.0999999046326,
,475,html-keyboard-response,34,2.0.0,439426,0enj4c49hf,692638df063c96e069476515,693265a63818e4fb64e249bd,39,feedbackTrial, ,,,,,,,,,,,,,,,,,
                    <div style="text-align:center;">
                        <p style="color:green; font-size:24px;">Correct!</p><p>You now have 5 points.</p>
                        <p> Press any key to continue. </p>
                    </div>
                    
,,html-keyboard-response,35,2.0.0,456681,0enj4c49hf,692638df063c96e069476515,693265a63818e4fb64e249bd,39,socialPredictionGame,,,,{"R":10,"P":5,"S":0,"T":15},0,15,10,5,PD,Red,coop,E.B.,opt_inv,coop,4,1,17252.300000190735,
,721,html-keyboard-response,36,2.0.0,457403,0enj4c49hf,692638df063c96e069476515,693265a63818e4fb64e249bd,39,feedbackTrial, ,,,,,,,,,,,,,,,,,
                    <div style="text-align:center;">
                        <p style="color:green; font-size:24px;">Correct!</p><p>You now have 6 points.</p>
                        <p> Press any key to continue. </p>
                    </div>
                    
,,html-keyboard-response,37,2.0.0,459997,0enj4c49hf,692638df063c96e069476515,693265a63818e4fb64e249bd,39,socialPredictionGame,,,,{"R":10,"P":5,"S":3,"T":5},3,5,10,5,SH,Red,coop,E.B.,opt_inv,def,4,0,2591.2000000476837,
,499,html-keyboard-response,38,2.0.0,460496,0enj4c49hf,692638df063c96e069476515,693265a63818e4fb64e249bd,39,feedbackTrial, ,,,,,,,,,,,,,,,,,
                    <div style="text-align:center;">
                        <p style="color:red; font-size:24px;">Incorrect</p><p>You still have 6 points.</p>
                        <p> Press any key to continue. </p>
                    </div>
                    
,,html-keyboard-response,39,2.0.0,462897,0enj4c49hf,692638df063c96e069476515,693265a63818e4fb64e249bd,39,socialPredictionGame,,,,{"R":10,"P":5,"S":3,"T":15},3,15,10,5,PD,Purple,def,E.B.,opt_inv,coop,6,0,2400.100000143051,
,368,html-keyboard-response,40,2.0.0,463266,0enj4c49hf,692638df063c96e069476515,693265a63818e4fb64e249bd,39,feedbackTrial, ,,,,,,,,,,,,,,,,,
                    <div style="text-align:center;">
                        <p style="color:red; font-size:24px;">Incorrect</p><p>You still have 6 points.</p>
                        <p> Press any key to continue. </p>
                    </div>
                    
,,html-keyboard-response,41,2.0.0,466845,0enj4c49hf,692638df063c96e069476515,693265a63818e4fb64e249bd,39,socialPredictionGame,,,,{"R":10,"P":5,"S":3,"T":8},3,8,10,5,SH,Red,coop,E.B.,opt_inv,def,3,0,3576.2000000476837,
,548,html-keyboard-response,42,2.0.0,467394,0enj4c49hf,692638df063c96e069476515,693265a63818e4fb64e249bd,39,feedbackTrial, ,,,,,,,,,,,,,,,,,
                    <div style="text-align:center;">
                        <p style="color:red; font-size:24px;">Incorrect</p><p>You still have 6 points.</p>
                        <p> Press any key to continue. </p>
                    </div>
                    
,11331,survey-html-form,43,2.1.0,478727,0enj4c49hf,692638df063c96e069476515,693265a63818e4fb64e249bd,39,strategyPrediction,{"strategyPrediction":"I don't know. It seemed kinda random to me"},,,,,,,,,,,,,,,,,
[{"page_index":0,"viewing_time":1545}],1545,instructions,44,2.1.0,480273,0enj4c49hf,692638df063c96e069476515,693265a63818e4fb64e249bd,39,,,,,,,,,,,,,,,,,,,
,,html-keyboard-response,45,2.0.0,487749,0enj4c49hf,692638df063c96e069476515,693265a63818e4fb64e249bd,39,socialPredictionGame,,,,{"R":10,"P":5,"S":10,"T":12},10,12,10,5,SG,Blue,coop,G.P.,pess_nat,coop,4,1,7475.299999952316,
,1020,html-keyboard-response,46,2.0.0,488769,0enj4c49hf,692638df063c96e069476515,693265a63818e4fb64e249bd,39,feedbackTrial, ,,,,,,,,,,,,,,,,,
                    <div style="text-align:center;">
                        <p style="color:green; font-size:24px;">Correct!</p><p>You now have 7 points.</p>
                        <p> Press any key to continue. </p>
                    </div>
                    
,,html-keyboard-response,47,2.0.0,496377,0enj4c49hf,692638df063c96e069476515,693265a63818e4fb64e249bd,39,socialPredictionGame,,,,{"R":10,"P":5,"S":3,"T":8},3,8,10,5,SH,Blue,coop,G.P.,pess_nat,def,5,0,7605.900000095367,
,528,html-keyboard-response,48,2.0.0,496906,0enj4c49hf,692638df063c96e069476515,693265a63818e4fb64e249bd,39,feedbackTrial, ,,,,,,,,,,,,,,,,,
                    <div style="text-align:center;">
                        <p style="color:red; font-size:24px;">Incorrect</p><p>You still have 7 points.</p>
                        <p> Press any key to continue. </p>
                    </div>
                    
,,html-keyboard-response,49,2.0.0,501263,0enj4c49hf,692638df063c96e069476515,693265a63818e4fb64e249bd,39,socialPredictionGame,,,,{"R":10,"P":5,"S":10,"T":15},10,15,10,5,SG,Blue,coop,G.P.,pess_nat,coop,5,1,4354.5,
,483,html-keyboard-response,50,2.0.0,501747,0enj4c49hf,692638df063c96e069476515,693265a63818e4fb64e249bd,39,feedbackTrial, ,,,,,,,,,,,,,,,,,
                    <div style="text-align:center;">
                        <p style="color:green; font-size:24px;">Correct!</p><p>You now have 8 points.</p>
                        <p> Press any key to continue. </p>
                    </div>
                    
,,html-keyboard-response,51,2.0.0,506278,0enj4c49hf,692638df063c96e069476515,693265a63818e4fb64e249bd,39,socialPredictionGame,,,,{"R":10,"P":5,"S":3,"T":12},3,12,10,5,PD,Green,def,G.P.,pess_nat,def,5,1,4529.400000095367,
,514,html-keyboard-response,52,2.0.0,506794,0enj4c49hf,692638df063c96e069476515,693265a63818e4fb64e249bd,39,feedbackTrial, ,,,,,,,,,,,,,,,,,
                    <div style="text-align:center;">
                        <p style="color:green; font-size:24px;">Correct!</p><p>You now have 9 points.</p>
                        <p> Press any key to continue. </p>
                    </div>
                    
,,html-keyboard-response,53,2.0.0,509923,0enj4c49hf,692638df063c96e069476515,693265a63818e4fb64e249bd,39,socialPredictionGame,,,,{"R":10,"P":5,"S":0,"T":15},0,15,10,5,PD,Green,def,G.P.,pess_nat,def,5,1,3126.800000190735,
,385,html-keyboard-response,54,2.0.0,510309,0enj4c49hf,692638df063c96e069476515,693265a63818e4fb64e249bd,39,feedbackTrial, ,,,,,,,,,,,,,,,,,
                    <div style="text-align:center;">
                        <p style="color:green; font-size:24px;">Correct!</p><p>You now have 10 points.</p>
                        <p> Press any key to continue. </p>
                    </div>
                    
,,html-keyboard-response,55,2.0.0,512566,0enj4c49hf,692638df063c96e069476515,693265a63818e4fb64e249bd,39,socialPredictionGame,,,,{"R":10,"P":5,"S":3,"T":15},3,15,10,5,PD,Green,def,G.P.,pess_nat,def,5,1,2255.100000143051,
,378,html-keyboard-response,56,2.0.0,512946,0enj4c49hf,692638df063c96e069476515,693265a63818e4fb64e249bd,39,feedbackTrial, ,,,,,,,,,,,,,,,,,
                    <div style="text-align:center;">
                        <p style="color:green; font-size:24px;">Correct!</p><p>You now have 11 points.</p>
                        <p> Press any key to continue. </p>
                    </div>
                    
,,html-keyboard-response,57,2.0.0,515786,0enj4c49hf,692638df063c96e069476515,693265a63818e4fb64e249bd,39,socialPredictionGame,,,,{"R":10,"P":5,"S":3,"T":5},3,5,10,5,SH,Blue,coop,G.P.,pess_nat,def,5,0,2838.4000000953674,
,405,html-keyboard-response,58,2.0.0,516192,0enj4c49hf,692638df063c96e069476515,693265a63818e4fb64e249bd,39,feedbackTrial, ,,,,,,,,,,,,,,,,,
                    <div style="text-align:center;">
                        <p style="color:red; font-size:24px;">Incorrect</p><p>You still have 11 points.</p>
                        <p> Press any key to continue. </p>
                    </div>
                    
,,html-keyboard-response,59,2.0.0,518559,0enj4c49hf,692638df063c96e069476515,693265a63818e4fb64e249bd,39,socialPredictionGame,,,,{"R":10,"P":5,"S":7,"T":5},7,5,10,5,HG,Blue,coop,G.P.,pess_nat,coop,5,1,2365.7999999523163,
,370,html-keyboard-response,60,2.0.0,518929,0enj4c49hf,692638df063c96e069476515,693265a63818e4fb64e249bd,39,feedbackTrial, ,,,,,,,,,,,,,,,,,
                    <div style="text-align:center;">
                        <p style="color:green; font-size:24px;">Correct!</p><p>You now have 12 points.</p>
                        <p> Press any key to continue. </p>
                    </div>
                    
,,html-keyboard-response,61,2.0.0,523268,0enj4c49hf,692638df063c96e069476515,693265a63818e4fb64e249bd,39,socialPredictionGame,,,,{"R":10,"P":5,"S":7,"T":15},7,15,10,5,SG,Green,def,G.P.,pess_nat,coop,4,0,4336.799999952316,
,421,html-keyboard-response,62,2.0.0,523690,0enj4c49hf,692638df063c96e069476515,693265a63818e4fb64e249bd,39,feedbackTrial, ,,,,,,,,,,,,,,,,,
                    <div style="text-align:center;">
                        <p style="color:red; font-size:24px;">Incorrect</p><p>You still have 12 points.</p>
                        <p> Press any key to continue. </p>
                    </div>
                    
,,html-keyboard-response,63,2.0.0,529877,0enj4c49hf,692638df063c96e069476515,693265a63818e4fb64e249bd,39,socialPredictionGame,,,,{"R":10,"P":5,"S":7,"T":12},7,12,10,5,SG,Green,def,G.P.,pess_nat,coop,3,0,6183.799999952316,
,333,html-keyboard-response,64,2.0.0,530210,0enj4c49hf,692638df063c96e069476515,693265a63818e4fb64e249bd,39,feedbackTrial, ,,,,,,,,,,,,,,,,,
                    <div style="text-align:center;">
                        <p style="color:red; font-size:24px;">Incorrect</p><p>You still have 12 points.</p>
                        <p> Press any key to continue. </p>
                    </div>
                    
,,html-keyboard-response,65,2.0.0,533698,0enj4c49hf,692638df063c96e069476515,693265a63818e4fb64e249bd,39,socialPredictionGame,,,,{"R":10,"P":5,"S":0,"T":5},0,5,10,5,SH,Green,def,G.P.,pess_nat,def,4,1,3485.7000000476837,
,367,html-keyboard-response,66,2.0.0,534066,0enj4c49hf,692638df063c96e069476515,693265a63818e4fb64e249bd,39,feedbackTrial, ,,,,,,,,,,,,,,,,,
                    <div style="text-align:center;">
                        <p style="color:green; font-size:24px;">Correct!</p><p>You now have 13 points.</p>
                        <p> Press any key to continue. </p>
                    </div>
                    
,,html-keyboard-response,67,2.0.0,537334,0enj4c49hf,692638df063c96e069476515,693265a63818e4fb64e249bd,39,socialPredictionGame,,,,{"R":10,"P":5,"S":0,"T":8},0,8,10,5,SH,Green,def,G.P.,pess_nat,def,4,1,3266.2000000476837,
,323,html-keyboard-response,68,2.0.0,537658,0enj4c49hf,692638df063c96e069476515,693265a63818e4fb64e249bd,39,feedbackTrial, ,,,,,,,,,,,,,,,,,
                    <div style="text-align:center;">
                        <p style="color:green; font-size:24px;">Correct!</p><p>You now have 14 points.</p>
                        <p> Press any key to continue. </p>
                    </div>
                    
,,html-keyboard-response,69,2.0.0,541034,0enj4c49hf,692638df063c96e069476515,693265a63818e4fb64e249bd,39,socialPredictionGame,,,,{"R":10,"P":5,"S":7,"T":8},7,8,10,5,HG,Blue,coop,G.P.,pess_nat,coop,5,1,3374.2999999523163,
,487,html-keyboard-response,70,2.0.0,541522,0enj4c49hf,692638df063c96e069476515,693265a63818e4fb64e249bd,39,feedbackTrial, ,,,,,,,,,,,,,,,,,
                    <div style="text-align:center;">
                        <p style="color:green; font-size:24px;">Correct!</p><p>You now have 15 points.</p>
                        <p> Press any key to continue. </p>
                    </div>
                    
,,html-keyboard-response,71,2.0.0,544384,0enj4c49hf,692638df063c96e069476515,693265a63818e4fb64e249bd,39,socialPredictionGame,,,,{"R":10,"P":5,"S":10,"T":8},10,8,10,5,HG,Blue,coop,G.P.,pess_nat,coop,5,1,2859.600000143051,
,370,html-keyboard-response,72,2.0.0,544755,0enj4c49hf,692638df063c96e069476515,693265a63818e4fb64e249bd,39,feedbackTrial, ,,,,,,,,,,,,,,,,,
                    <div style="text-align:center;">
                        <p style="color:green; font-size:24px;">Correct!</p><p>You now have 16 points.</p>
                        <p> Press any key to continue. </p>
                    </div>
                    
,,html-keyboard-response,73,2.0.0,547892,0enj4c49hf,692638df063c96e069476515,693265a63818e4fb64e249bd,39,socialPredictionGame,,,,{"R":10,"P":5,"S":10,"T":5},10,5,10,5,HG,Blue,coop,G.P.,pess_nat,coop,7,1,3134.4000000953674,
,373,html-keyboard-response,74,2.0.0,548266,0enj4c49hf,692638df063c96e069476515,693265a63818e4fb64e249bd,39,feedbackTrial, ,,,,,,,,,,,,,,,,,
                    <div style="text-align:center;">
                        <p style="color:green; font-size:24px;">Correct!</p><p>You now have 17 points.</p>
                        <p> Press any key to continue. </p>
                    </div>
                    
,,html-keyboard-response,75,2.0.0,551320,0enj4c49hf,692638df063c96e069476515,693265a63818e4fb64e249bd,39,socialPredictionGame,,,,{"R":10,"P":5,"S":0,"T":12},0,12,10,5,PD,Green,def,G.P.,pess_nat,def,4,1,3051.5999999046326,
,399,html-keyboard-response,76,2.0.0,551721,0enj4c49hf,692638df063c96e069476515,693265a63818e4fb64e249bd,39,feedbackTrial, ,,,,,,,,,,,,,,,,,
                    <div style="text-align:center;">
                        <p style="color:green; font-size:24px;">Correct!</p><p>You now have 18 points.</p>
                        <p> Press any key to continue. </p>
                    </div>
                    
,5683,survey-html-form,77,2.1.0,557405,0enj4c49hf,692638df063c96e069476515,693265a63818e4fb64e249bd,39,strategyPrediction,{"strategyPrediction":"to play it safe"},,,,,,,,,,,,,,,,,
[{"page_index":0,"viewing_time":1345}],1345,instructions,78,2.1.0,558750,0enj4c49hf,692638df063c96e069476515,693265a63818e4fb64e249bd,39,,,,,,,,,,,,,,,,,,,
,,html-keyboard-response,79,2.0.0,564904,0enj4c49hf,692638df063c96e069476515,693265a63818e4fb64e249bd,39,socialPredictionGame,,,,{"R":10,"P":5,"S":10,"T":5},10,5,10,5,HG,Red,coop,F.A.,opt_nat,coop,9,1,6153.300000190735,
,1216,html-keyboard-response,80,2.0.0,566122,0enj4c49hf,692638df063c96e069476515,693265a63818e4fb64e249bd,39,feedbackTrial, ,,,,,,,,,,,,,,,,,
                    <div style="text-align:center;">
                        <p style="color:green; font-size:24px;">Correct!</p><p>You now have 19 points.</p>
                        <p> Press any key to continue. </p>
                    </div>
                    
,,html-keyboard-response,81,2.0.0,570006,0enj4c49hf,692638df063c96e069476515,693265a63818e4fb64e249bd,39,socialPredictionGame,,,,{"R":10,"P":5,"S":7,"T":12},7,12,10,5,SG,Red,coop,F.A.,opt_nat,def,5,0,3882.2999999523163,
,466,html-keyboard-response,82,2.0.0,570473,0enj4c49hf,692638df063c96e069476515,693265a63818e4fb64e249bd,39,feedbackTrial, ,,,,,,,,,,,,,,,,,
                    <div style="text-align:center;">
                        <p style="color:red; font-size:24px;">Incorrect</p><p>You still have 19 points.</p>
                        <p> Press any key to continue. </p>
                    </div>
                    
,,html-keyboard-response,83,2.0.0,572994,0enj4c49hf,692638df063c96e069476515,693265a63818e4fb64e249bd,39,socialPredictionGame,,,,{"R":10,"P":5,"S":7,"T":15},7,15,10,5,SG,Blue,def,F.A.,opt_nat,def,5,1,2518.899999856949,
,510,html-keyboard-response,84,2.0.0,573506,0enj4c49hf,692638df063c96e069476515,693265a63818e4fb64e249bd,39,feedbackTrial, ,,,,,,,,,,,,,,,,,
                    <div style="text-align:center;">
                        <p style="color:green; font-size:24px;">Correct!</p><p>You now have 20 points.</p>
                        <p> Press any key to continue. </p>
                    </div>
                    
,,html-keyboard-response,85,2.0.0,577920,0enj4c49hf,692638df063c96e069476515,693265a63818e4fb64e249bd,39,socialPredictionGame,,,,{"R":10,"P":5,"S":0,"T":8},0,8,10,5,SH,Red,coop,F.A.,opt_nat,coop,4,1,4412.299999952316,
,377,html-keyboard-response,86,2.0.0,578298,0enj4c49hf,692638df063c96e069476515,693265a63818e4fb64e249bd,39,feedbackTrial, ,,,,,,,,,,,,,,,,,
                    <div style="text-align:center;">
                        <p style="color:green; font-size:24px;">Correct!</p><p>You now have 21 points.</p>
                        <p> Press any key to continue. </p>
                    </div>
                    
,,html-keyboard-response,87,2.0.0,581220,0enj4c49hf,692638df063c96e069476515,693265a63818e4fb64e249bd,39,socialPredictionGame,,,,{"R":10,"P":5,"S":3,"T":12},3,12,10,5,PD,Blue,def,F.A.,opt_nat,def,6,1,2920,
,556,html-keyboard-response,88,2.0.0,581778,0enj4c49hf,692638df063c96e069476515,693265a63818e4fb64e249bd,39,feedbackTrial, ,,,,,,,,,,,,,,,,,
                    <div style="text-align:center;">
                        <p style="color:green; font-size:24px;">Correct!</p><p>You now have 22 points.</p>
                        <p> Press any key to continue. </p>
                    </div>
                    
,,html-keyboard-response,89,2.0.0,590534,0enj4c49hf,692638df063c96e069476515,693265a63818e4fb64e249bd,39,socialPredictionGame,,,,{"R":10,"P":5,"S":3,"T":8},3,8,10,5,SH,Red,coop,F.A.,opt_nat,coop,6,1,8754.600000143051,
,1147,html-keyboard-response,90,2.0.0,591682,0enj4c49hf,692638df063c96e069476515,693265a63818e4fb64e249bd,39,feedbackTrial, ,,,,,,,,,,,,,,,,,
                    <div style="text-align:center;">
                        <p style="color:green; font-size:24px;">Correct!</p><p>You now have 23 points.</p>
                        <p> Press any key to continue. </p>
                    </div>
                    
,,html-keyboard-response,91,2.0.0,594236,0enj4c49hf,692638df063c96e069476515,693265a63818e4fb64e249bd,39,socialPredictionGame,,,,{"R":10,"P":5,"S":10,"T":8},10,8,10,5,HG,Red,coop,F.A.,opt_nat,coop,6,1,2552.2999999523163,
,525,html-keyboard-response,92,2.0.0,594762,0enj4c49hf,692638df063c96e069476515,693265a63818e4fb64e249bd,39,feedbackTrial, ,,,,,,,,,,,,,,,,,
                    <div style="text-align:center;">
                        <p style="color:green; font-size:24px;">Correct!</p><p>You now have 24 points.</p>
                        <p> Press any key to continue. </p>
                    </div>
                    
,,html-keyboard-response,93,2.0.0,604858,0enj4c49hf,692638df063c96e069476515,693265a63818e4fb64e249bd,39,socialPredictionGame,,,,{"R":10,"P":5,"S":0,"T":15},0,15,10,5,PD,Blue,def,F.A.,opt_nat,def,6,1,10094.099999904633,
,1462,html-keyboard-response,94,2.0.0,606321,0enj4c49hf,692638df063c96e069476515,693265a63818e4fb64e249bd,39,feedbackTrial, ,,,,,,,,,,,,,,,,,
                    <div style="text-align:center;">
                        <p style="color:green; font-size:24px;">Correct!</p><p>You now have 25 points.</p>
                        <p> Press any key to continue. </p>
                    </div>
                    
,,html-keyboard-response,95,2.0.0,611366,0enj4c49hf,692638df063c96e069476515,693265a63818e4fb64e249bd,39,socialPredictionGame,,,,{"R":10,"P":5,"S":10,"T":12},10,12,10,5,SG,Blue,def,F.A.,opt_nat,def,6,1,5042.599999904633,
,1666,html-keyboard-response,96,2.0.0,613033,0enj4c49hf,692638df063c96e069476515,693265a63818e4fb64e249bd,39,feedbackTrial, ,,,,,,,,,,,,,,,,,
                    <div style="text-align:center;">
                        <p style="color:green; font-size:24px;">Correct!</p><p>You now have 26 points.</p>
                        <p> Press any key to continue. </p>
                    </div>
                    
,,html-keyboard-response,97,2.0.0,625718,0enj4c49hf,692638df063c96e069476515,693265a63818e4fb64e249bd,39,socialPredictionGame,,,,{"R":10,"P":5,"S":0,"T":5},0,5,10,5,SH,Red,coop,F.A.,opt_nat,coop,7,1,12682.5,
,1386,html-keyboard-response,98,2.0.0,627106,0enj4c49hf,692638df063c96e069476515,693265a63818e4fb64e249bd,39,feedbackTrial, ,,,,,,,,,,,,,,,,,
                    <div style="text-align:center;">
                        <p style="color:green; font-size:24px;">Correct!</p><p>You now have 27 points.</p>
                        <p> Press any key to continue. </p>
                    </div>
                    
,,html-keyboard-response,99,2.0.0,629884,0enj4c49hf,692638df063c96e069476515,693265a63818e4fb64e249bd,39,socialPredictionGame,,,,{"R":10,"P":5,"S":7,"T":8},7,8,10,5,HG,Red,coop,F.A.,opt_nat,coop,7,1,2776.4000000953674,
,419,html-keyboard-response,100,2.0.0,630304,0enj4c49hf,692638df063c96e069476515,693265a63818e4fb64e249bd,39,feedbackTrial, ,,,,,,,,,,,,,,,,,
                    <div style="text-align:center;">
                        <p style="color:green; font-size:24px;">Correct!</p><p>You now have 28 points.</p>
                        <p> Press any key to continue. </p>
                    </div>
                    
,,html-keyboard-response,101,2.0.0,632792,0enj4c49hf,692638df063c96e069476515,693265a63818e4fb64e249bd,39,socialPredictionGame,,,,{"R":10,"P":5,"S":0,"T":12},0,12,10,5,PD,Blue,def,F.A.,opt_nat,def,7,1,2487.2999999523163,
,417,html-keyboard-response,102,2.0.0,633210,0enj4c49hf,692638df063c96e069476515,693265a63818e4fb64e249bd,39,feedbackTrial, ,,,,,,,,,,,,,,,,,
                    <div style="text-align:center;">
                        <p style="color:green; font-size:24px;">Correct!</p><p>You now have 29 points.</p>
                        <p> Press any key to continue. </p>
                    </div>
                    
,,html-keyboard-response,103,2.0.0,635636,0enj4c49hf,692638df063c96e069476515,693265a63818e4fb64e249bd,39,socialPredictionGame,,,,{"R":10,"P":5,"S":10,"T":15},10,15,10,5,SG,Blue,def,F.A.,opt_nat,def,9,1,2423.2999999523163,
,485,html-keyboard-response,104,2.0.0,636122,0enj4c49hf,692638df063c96e069476515,693265a63818e4fb64e249bd,39,feedbackTrial, ,,,,,,,,,,,,,,,,,
                    <div style="text-align:center;">
                        <p style="color:green; font-size:24px;">Correct!</p><p>You now have 30 points.</p>
                        <p> Press any key to continue. </p>
                    </div>
                    
,,html-keyboard-response,105,2.0.0,638438,0enj4c49hf,692638df063c96e069476515,693265a63818e4fb64e249bd,39,socialPredictionGame,,,,{"R":10,"P":5,"S":3,"T":5},3,5,10,5,SH,Red,coop,F.A.,opt_nat,coop,7,1,2314,
,395,html-keyboard-response,106,2.0.0,638833,0enj4c49hf,692638df063c96e069476515,693265a63818e4fb64e249bd,39,feedbackTrial, ,,,,,,,,,,,,,,,,,
                    <div style="text-align:center;">
                        <p style="color:green; font-size:24px;">Correct!</p><p>You now have 31 points.</p>
                        <p> Press any key to continue. </p>
                    </div>
                    
,,html-keyboard-response,107,2.0.0,641274,0enj4c49hf,692638df063c96e069476515,693265a63818e4fb64e249bd,39,socialPredictionGame,,,,{"R":10,"P":5,"S":7,"T":5},7,5,10,5,HG,Red,coop,F.A.,opt_nat,coop,7,1,2438.2999999523163,
,447,html-keyboard-response,108,2.0.0,641721,0enj4c49hf,692638df063c96e069476515,693265a63818e4fb64e249bd,39,feedbackTrial, ,,,,,,,,,,,,,,,,,
                    <div style="text-align:center;">
                        <p style="color:green; font-size:24px;">Correct!</p><p>You now have 32 points.</p>
                        <p> Press any key to continue. </p>
                    </div>
                    
,,html-keyboard-response,109,2.0.0,644638,0enj4c49hf,692638df063c96e069476515,693265a63818e4fb64e249bd,39,socialPredictionGame,,,,{"R":10,"P":5,"S":3,"T":15},3,15,10,5,PD,Blue,def,F.A.,opt_nat,def,8,1,2914.2999999523163,
,387,html-keyboard-response,110,2.0.0,645026,0enj4c49hf,692638df063c96e069476515,693265a63818e4fb64e249bd,39,feedbackTrial, ,,,,,,,,,,,,,,,,,
                    <div style="text-align:center;">
                        <p style="color:green; font-size:24px;">Correct!</p><p>You now have 33 points.</p>
                        <p> Press any key to continue. </p>
                    </div>
                    
,10459,survey-html-form,111,2.1.0,655486,0enj4c49hf,692638df063c96e069476515,693265a63818e4fb64e249bd,39,strategyPrediction,{"strategyPrediction":"pick the highest potential "},,,,,,,,,,,,,,,,,
[{"page_index":0,"viewing_time":1297}],1297,instructions,112,2.1.0,656784,0enj4c49hf,692638df063c96e069476515,693265a63818e4fb64e249bd,39,,,,,,,,,,,,,,,,,,,
,,html-keyboard-response,113,2.0.0,661430,0enj4c49hf,692638df063c96e069476515,693265a63818e4fb64e249bd,39,socialPredictionGame,,,,{"R":10,"P":5,"S":7,"T":12},7,12,10,5,SG,Blue,coop,D.T.,pess_inv,def,4,0,4645.299999952316,
,1179,html-keyboard-response,114,2.0.0,662610,0enj4c49hf,692638df063c96e069476515,693265a63818e4fb64e249bd,39,feedbackTrial, ,,,,,,,,,,,,,,,,,
                    <div style="text-align:center;">
                        <p style="color:red; font-size:24px;">Incorrect</p><p>You still have 33 points.</p>
                        <p> Press any key to continue. </p>
                    </div>
                    
,,html-keyboard-response,115,2.0.0,665532,0enj4c49hf,692638df063c96e069476515,693265a63818e4fb64e249bd,39,socialPredictionGame,,,,{"R":10,"P":5,"S":10,"T":8},10,8,10,5,HG,Blue,coop,D.T.,pess_inv,def,6,0,2919.7999999523163,
,508,html-keyboard-response,116,2.0.0,666041,0enj4c49hf,692638df063c96e069476515,693265a63818e4fb64e249bd,39,feedbackTrial, ,,,,,,,,,,,,,,,,,
                    <div style="text-align:center;">
                        <p style="color:red; font-size:24px;">Incorrect</p><p>You still have 33 points.</p>
                        <p> Press any key to continue. </p>
                    </div>
                    
,,html-keyboard-response,117,2.0.0,669216,0enj4c49hf,692638df063c96e069476515,693265a63818e4fb64e249bd,39,socialPredictionGame,,,,{"R":10,"P":5,"S":7,"T":8},7,8,10,5,HG,Blue,coop,D.T.,pess_inv,def,5,0,3172.2000000476837,
,312,html-keyboard-response,118,2.0.0,669529,0enj4c49hf,692638df063c96e069476515,693265a63818e4fb64e249bd,39,feedbackTrial, ,,,,,,,,,,,,,,,,,
                    <div style="text-align:center;">
                        <p style="color:red; font-size:24px;">Incorrect</p><p>You still have 33 points.</p>
                        <p> Press any key to continue. </p>
                    </div>
                    
,,html-keyboard-response,119,2.0.0,671908,0enj4c49hf,692638df063c96e069476515,693265a63818e4fb64e249bd,39,socialPredictionGame,,,,{"R":10,"P":5,"S":3,"T":12},3,12,10,5,PD,Purple,def,D.T.,pess_inv,coop,6,0,2377,
,460,html-keyboard-response,120,2.0.0,672369,0enj4c49hf,692638df063c96e069476515,693265a63818e4fb64e249bd,39,feedbackTrial, ,,,,,,,,,,,,,,,,,
                    <div style="text-align:center;">
                        <p style="color:red; font-size:24px;">Incorrect</p><p>You still have 33 points.</p>
                        <p> Press any key to continue. </p>
                    </div>
                    
,,html-keyboard-response,121,2.0.0,675400,0enj4c49hf,692638df063c96e069476515,693265a63818e4fb64e249bd,39,socialPredictionGame,,,,{"R":10,"P":5,"S":3,"T":15},3,15,10,5,PD,Purple,def,D.T.,pess_inv,coop,4,0,3028.5999999046326,
,444,html-keyboard-response,122,2.0.0,675845,0enj4c49hf,692638df063c96e069476515,693265a63818e4fb64e249bd,39,feedbackTrial, ,,,,,,,,,,,,,,,,,
                    <div style="text-align:center;">
                        <p style="color:red; font-size:24px;">Incorrect</p><p>You still have 33 points.</p>
                        <p> Press any key to continue. </p>
                    </div>
                    
,,html-keyboard-response,123,2.0.0,677964,0enj4c49hf,692638df063c96e069476515,693265a63818e4fb64e249bd,39,socialPredictionGame,,,,{"R":10,"P":5,"S":10,"T":12},10,12,10,5,SG,Blue,coop,D.T.,pess_inv,def,4,0,2116.2999999523163,
,420,html-keyboard-response,124,2.0.0,678385,0enj4c49hf,692638df063c96e069476515,693265a63818e4fb64e249bd,39,feedbackTrial, ,,,,,,,,,,,,,,,,,
                    <div style="text-align:center;">
                        <p style="color:red; font-size:24px;">Incorrect</p><p>You still have 33 points.</p>
                        <p> Press any key to continue. </p>
                    </div>
                    
,,html-keyboard-response,125,2.0.0,681000,0enj4c49hf,692638df063c96e069476515,693265a63818e4fb64e249bd,39,socialPredictionGame,,,,{"R":10,"P":5,"S":3,"T":8},3,8,10,5,SH,Blue,coop,D.T.,pess_inv,coop,4,1,2612,
,391,html-keyboard-response,126,2.0.0,681392,0enj4c49hf,692638df063c96e069476515,693265a63818e4fb64e249bd,39,feedbackTrial, ,,,,,,,,,,,,,,,,,
                    <div style="text-align:center;">
                        <p style="color:green; font-size:24px;">Correct!</p><p>You now have 34 points.</p>
                        <p> Press any key to continue. </p>
                    </div>
                    
,,html-keyboard-response,127,2.0.0,685774,0enj4c49hf,692638df063c96e069476515,693265a63818e4fb64e249bd,39,socialPredictionGame,,,,{"R":10,"P":5,"S":0,"T":12},0,12,10,5,PD,Blue,coop,D.T.,pess_inv,coop,5,1,4380.700000047684,
,470,html-keyboard-response,128,2.0.0,686244,0enj4c49hf,692638df063c96e069476515,693265a63818e4fb64e249bd,39,feedbackTrial, ,,,,,,,,,,,,,,,,,
                    <div style="text-align:center;">
                        <p style="color:green; font-size:24px;">Correct!</p><p>You now have 35 points.</p>
                        <p> Press any key to continue. </p>
                    </div>
                    
,,html-keyboard-response,129,2.0.0,690692,0enj4c49hf,692638df063c96e069476515,693265a63818e4fb64e249bd,39,socialPredictionGame,,,,{"R":10,"P":5,"S":3,"T":5},3,5,10,5,SH,Blue,coop,D.T.,pess_inv,coop,6,1,4445,
,459,html-keyboard-response,130,2.0.0,691152,0enj4c49hf,692638df063c96e069476515,693265a63818e4fb64e249bd,39,feedbackTrial, ,,,,,,,,,,,,,,,,,
                    <div style="text-align:center;">
                        <p style="color:green; font-size:24px;">Correct!</p><p>You now have 36 points.</p>
                        <p> Press any key to continue. </p>
                    </div>
                    
,,html-keyboard-response,131,2.0.0,694250,0enj4c49hf,692638df063c96e069476515,693265a63818e4fb64e249bd,39,socialPredictionGame,,,,{"R":10,"P":5,"S":0,"T":5},0,5,10,5,SH,Blue,coop,D.T.,pess_inv,coop,5,1,3097.5999999046326,
,455,html-keyboard-response,132,2.0.0,694705,0enj4c49hf,692638df063c96e069476515,693265a63818e4fb64e249bd,39,feedbackTrial, ,,,,,,,,,,,,,,,,,
                    <div style="text-align:center;">
                        <p style="color:green; font-size:24px;">Correct!</p><p>You now have 37 points.</p>
                        <p> Press any key to continue. </p>
                    </div>
                    
,,html-keyboard-response,133,2.0.0,696942,0enj4c49hf,692638df063c96e069476515,693265a63818e4fb64e249bd,39,socialPredictionGame,,,,{"R":10,"P":5,"S":10,"T":15},10,15,10,5,SG,Blue,coop,D.T.,pess_inv,def,6,0,2234,
,435,html-keyboard-response,134,2.0.0,697377,0enj4c49hf,692638df063c96e069476515,693265a63818e4fb64e249bd,39,feedbackTrial, ,,,,,,,,,,,,,,,,,
                    <div style="text-align:center;">
                        <p style="color:red; font-size:24px;">Incorrect</p><p>You still have 37 points.</p>
                        <p> Press any key to continue. </p>
                    </div>
                    
,,html-keyboard-response,135,2.0.0,701442,0enj4c49hf,692638df063c96e069476515,693265a63818e4fb64e249bd,39,socialPredictionGame,,,,{"R":10,"P":5,"S":7,"T":5},7,5,10,5,HG,Blue,coop,D.T.,pess_inv,def,7,0,4062.2000000476837,
,398,html-keyboard-response,136,2.0.0,701841,0enj4c49hf,692638df063c96e069476515,693265a63818e4fb64e249bd,39,feedbackTrial, ,,,,,,,,,,,,,,,,,
                    <div style="text-align:center;">
                        <p style="color:red; font-size:24px;">Incorrect</p><p>You still have 37 points.</p>
                        <p> Press any key to continue. </p>
                    </div>
                    
,,html-keyboard-response,137,2.0.0,707796,0enj4c49hf,692638df063c96e069476515,693265a63818e4fb64e249bd,39,socialPredictionGame,,,,{"R":10,"P":5,"S":0,"T":8},0,8,10,5,SH,Blue,coop,D.T.,pess_inv,coop,5,1,5952.300000190735,
,365,html-keyboard-response,138,2.0.0,708161,0enj4c49hf,692638df063c96e069476515,693265a63818e4fb64e249bd,39,feedbackTrial, ,,,,,,,,,,,,,,,,,
                    <div style="text-align:center;">
                        <p style="color:green; font-size:24px;">Correct!</p><p>You now have 38 points.</p>
                        <p> Press any key to continue. </p>
                    </div>
                    
,,html-keyboard-response,139,2.0.0,714686,0enj4c49hf,692638df063c96e069476515,693265a63818e4fb64e249bd,39,socialPredictionGame,,,,{"R":10,"P":5,"S":0,"T":15},0,15,10,5,PD,Blue,coop,D.T.,pess_inv,coop,6,1,6522.300000190735,
,411,html-keyboard-response,140,2.0.0,715097,0enj4c49hf,692638df063c96e069476515,693265a63818e4fb64e249bd,39,feedbackTrial, ,,,,,,,,,,,,,,,,,
                    <div style="text-align:center;">
                        <p style="color:green; font-size:24px;">Correct!</p><p>You now have 39 points.</p>
                        <p> Press any key to continue. </p>
                    </div>
                    
,,html-keyboard-response,141,2.0.0,718892,0enj4c49hf,692638df063c96e069476515,693265a63818e4fb64e249bd,39,socialPredictionGame,,,,{"R":10,"P":5,"S":7,"T":15},7,15,10,5,SG,Blue,coop,D.T.,pess_inv,def,6,0,3792.100000143051,
,348,html-keyboard-response,142,2.0.0,719241,0enj4c49hf,692638df063c96e069476515,693265a63818e4fb64e249bd,39,feedbackTrial, ,,,,,,,,,,,,,,,,,
                    <div style="text-align:center;">
                        <p style="color:red; font-size:24px;">Incorrect</p><p>You still have 39 points.</p>
                        <p> Press any key to continue. </p>
                    </div>
                    
,,html-keyboard-response,143,2.0.0,723794,0enj4c49hf,692638df063c96e069476515,693265a63818e4fb64e249bd,39,socialPredictionGame,,,,{"R":10,"P":5,"S":10,"T":5},10,5,10,5,HG,Blue,coop,D.T.,pess_inv,def,5,0,4550,
,431,html-keyboard-response,144,2.0.0,724225,0enj4c49hf,692638df063c96e069476515,693265a63818e4fb64e249bd,39,feedbackTrial, ,,,,,,,,,,,,,,,,,
                    <div style="text-align:center;">
                        <p style="color:red; font-size:24px;">Incorrect</p><p>You still have 39 points.</p>
                        <p> Press any key to continue. </p>
                    </div>
                    
,5449,survey-html-form,145,2.1.0,729676,0enj4c49hf,692638df063c96e069476515,693265a63818e4fb64e249bd,39,strategyPrediction,{"strategyPrediction":"i'm not sure"},,,,,,,,,,,,,,,,,
,4511,survey-html-form,146,2.1.0,734188,0enj4c49hf,692638df063c96e069476515,693265a63818e4fb64e249bd,39,demographics,{"age":"30","gender":"Male"},,,,,,,,,,,,,,,,,
,4487,survey-html-form,147,2.1.0,738676,0enj4c49hf,692638df063c96e069476515,693265a63818e4fb64e249bd,39,technical,{"technical":"no","feedback":"no"},,,,,,,,,,,,,,,,,
