view_history,rt,trial_type,trial_index,plugin_version,time_elapsed,subjectID,studyID,sessionID,overallBonusPoints,task,response,question_order,success,Matrix,S,T,R,P,GameType,choice,GivenAns,Player,PlayerType,CorrAns,confidence,ScoreNum,time_on_trial,stimulus
"[{""page_index"":0,""viewing_time"":6402},{""page_index"":1,""viewing_time"":3001}]",9403.0,instructions,0,2.1.0,9416,0myc60ayy5,692638df063c96e069476515,6932651197cd2a523915fb2c,34,,,,,,,,,,,,,,,,,,,
"[{""page_index"":0,""viewing_time"":40586}]",40586.0,instructions,1,2.1.0,50016,0myc60ayy5,692638df063c96e069476515,6932651197cd2a523915fb2c,34,,,,,,,,,,,,,,,,,,,
"[{""page_index"":0,""viewing_time"":2082}]",2082.0,instructions,2,2.1.0,52101,0myc60ayy5,692638df063c96e069476515,6932651197cd2a523915fb2c,34,,,,,,,,,,,,,,,,,,,
,7391.0,survey-multi-choice,3,,59497,0myc60ayy5,692638df063c96e069476515,6932651197cd2a523915fb2c,34,comprehensionCheck,"{""task"":""Choose the option the anonymized participant chose"",""incentive"":""Yes—they received bonuses based on their performance""}","[0,1]",,,,,,,,,,,,,,,,
,1810.0,fullscreen,4,2.1.0,62315,0myc60ayy5,692638df063c96e069476515,6932651197cd2a523915fb2c,34,,,,True,,,,,,,,,,,,,,,
"[{""page_index"":0,""viewing_time"":4182}]",4182.0,instructions,5,2.1.0,66499,0myc60ayy5,692638df063c96e069476515,6932651197cd2a523915fb2c,34,,,,,,,,,,,,,,,,,,,
,,html-keyboard-response,6,2.0.0,77738,0myc60ayy5,692638df063c96e069476515,6932651197cd2a523915fb2c,34,playOwnGame,,,,"{""R"":10,""P"":5,""S"":10,""T"":5}",10.0,5.0,10.0,5.0,HG,Blue,coop,,,,,,,
,,html-keyboard-response,7,2.0.0,84831,0myc60ayy5,692638df063c96e069476515,6932651197cd2a523915fb2c,34,playOwnGame,,,,"{""R"":10,""P"":5,""S"":0,""T"":5}",0.0,5.0,10.0,5.0,SH,Blue,coop,,,,,,,
,,html-keyboard-response,8,2.0.0,94822,0myc60ayy5,692638df063c96e069476515,6932651197cd2a523915fb2c,34,playOwnGame,,,,"{""R"":10,""P"":5,""S"":10,""T"":12}",10.0,12.0,10.0,5.0,SG,Blue,coop,,,,,,,
,,html-keyboard-response,9,2.0.0,101012,0myc60ayy5,692638df063c96e069476515,6932651197cd2a523915fb2c,34,playOwnGame,,,,"{""R"":10,""P"":5,""S"":0,""T"":12}",0.0,12.0,10.0,5.0,PD,Blue,coop,,,,,,,
"[{""page_index"":0,""viewing_time"":1816}]",1816.0,instructions,10,2.1.0,102829,0myc60ayy5,692638df063c96e069476515,6932651197cd2a523915fb2c,34,,,,,,,,,,,,,,,,,,,
,,html-keyboard-response,11,2.0.0,113060,0myc60ayy5,692638df063c96e069476515,6932651197cd2a523915fb2c,34,socialPredictionGame,,,,"{""R"":10,""P"":5,""S"":0,""T"":5}",0.0,5.0,10.0,5.0,SH,Blue,coop,D.T.,opt_inv,def,7.0,0.0,10230.0,
,2542.0,html-keyboard-response,12,2.0.0,115605,0myc60ayy5,692638df063c96e069476515,6932651197cd2a523915fb2c,34,feedbackTrial, ,,,,,,,,,,,,,,,,,"
                    <div style=""text-align:center;"">
                        <p style=""color:red; font-size:24px;"">Incorrect</p><p>You still have 0 points.</p>
                        <p> Press any key to continue. </p>
                    </div>
                    "
,,html-keyboard-response,13,2.0.0,122747,0myc60ayy5,692638df063c96e069476515,6932651197cd2a523915fb2c,34,socialPredictionGame,,,,"{""R"":10,""P"":5,""S"":10,""T"":12}",10.0,12.0,10.0,5.0,SG,Green,def,D.T.,opt_inv,coop,8.0,0.0,7141.0,
,2039.0,html-keyboard-response,14,2.0.0,124788,0myc60ayy5,692638df063c96e069476515,6932651197cd2a523915fb2c,34,feedbackTrial,Enter,,,,,,,,,,,,,,,,,"
                    <div style=""text-align:center;"">
                        <p style=""color:red; font-size:24px;"">Incorrect</p><p>You still have 0 points.</p>
                        <p> Press any key to continue. </p>
                    </div>
                    "
,,html-keyboard-response,15,2.0.0,129800,0myc60ayy5,692638df063c96e069476515,6932651197cd2a523915fb2c,34,socialPredictionGame,,,,"{""R"":10,""P"":5,""S"":7,""T"":15}",7.0,15.0,10.0,5.0,SG,Green,def,D.T.,opt_inv,coop,8.0,0.0,5010.0,
,1266.0,html-keyboard-response,16,2.0.0,131069,0myc60ayy5,692638df063c96e069476515,6932651197cd2a523915fb2c,34,feedbackTrial,Enter,,,,,,,,,,,,,,,,,"
                    <div style=""text-align:center;"">
                        <p style=""color:red; font-size:24px;"">Incorrect</p><p>You still have 0 points.</p>
                        <p> Press any key to continue. </p>
                    </div>
                    "
,,html-keyboard-response,17,2.0.0,133712,0myc60ayy5,692638df063c96e069476515,6932651197cd2a523915fb2c,34,socialPredictionGame,,,,"{""R"":10,""P"":5,""S"":10,""T"":15}",10.0,15.0,10.0,5.0,SG,Blue,coop,D.T.,opt_inv,coop,8.0,1.0,2643.0,
,984.0,html-keyboard-response,18,2.0.0,134698,0myc60ayy5,692638df063c96e069476515,6932651197cd2a523915fb2c,34,feedbackTrial,Enter,,,,,,,,,,,,,,,,,"
                    <div style=""text-align:center;"">
                        <p style=""color:green; font-size:24px;"">Correct!</p><p>You now have 1 points.</p>
                        <p> Press any key to continue. </p>
                    </div>
                    "
,,html-keyboard-response,19,2.0.0,138442,0myc60ayy5,692638df063c96e069476515,6932651197cd2a523915fb2c,34,socialPredictionGame,,,,"{""R"":10,""P"":5,""S"":3,""T"":8}",3.0,8.0,10.0,5.0,SH,Blue,coop,D.T.,opt_inv,def,8.0,0.0,3745.0,
,886.0,html-keyboard-response,20,2.0.0,139331,0myc60ayy5,692638df063c96e069476515,6932651197cd2a523915fb2c,34,feedbackTrial,Enter,,,,,,,,,,,,,,,,,"
                    <div style=""text-align:center;"">
                        <p style=""color:red; font-size:24px;"">Incorrect</p><p>You still have 1 points.</p>
                        <p> Press any key to continue. </p>
                    </div>
                    "
,,html-keyboard-response,21,2.0.0,145580,0myc60ayy5,692638df063c96e069476515,6932651197cd2a523915fb2c,34,socialPredictionGame,,,,"{""R"":10,""P"":5,""S"":3,""T"":12}",3.0,12.0,10.0,5.0,PD,Blue,coop,D.T.,opt_inv,coop,8.0,1.0,6249.0,
,901.0,html-keyboard-response,22,2.0.0,146484,0myc60ayy5,692638df063c96e069476515,6932651197cd2a523915fb2c,34,feedbackTrial,Enter,,,,,,,,,,,,,,,,,"
                    <div style=""text-align:center;"">
                        <p style=""color:green; font-size:24px;"">Correct!</p><p>You now have 2 points.</p>
                        <p> Press any key to continue. </p>
                    </div>
                    "
,,html-keyboard-response,23,2.0.0,151070,0myc60ayy5,692638df063c96e069476515,6932651197cd2a523915fb2c,34,socialPredictionGame,,,,"{""R"":10,""P"":5,""S"":0,""T"":8}",0.0,8.0,10.0,5.0,SH,Blue,coop,D.T.,opt_inv,def,8.0,0.0,4584.0,
,851.0,html-keyboard-response,24,2.0.0,151924,0myc60ayy5,692638df063c96e069476515,6932651197cd2a523915fb2c,34,feedbackTrial,Enter,,,,,,,,,,,,,,,,,"
                    <div style=""text-align:center;"">
                        <p style=""color:red; font-size:24px;"">Incorrect</p><p>You still have 2 points.</p>
                        <p> Press any key to continue. </p>
                    </div>
                    "
,,html-keyboard-response,25,2.0.0,163508,0myc60ayy5,692638df063c96e069476515,6932651197cd2a523915fb2c,34,socialPredictionGame,,,,"{""R"":10,""P"":5,""S"":0,""T"":12}",0.0,12.0,10.0,5.0,PD,Green,def,D.T.,opt_inv,coop,7.0,0.0,11582.0,
,1311.0,html-keyboard-response,26,2.0.0,164820,0myc60ayy5,692638df063c96e069476515,6932651197cd2a523915fb2c,34,feedbackTrial,Enter,,,,,,,,,,,,,,,,,"
                    <div style=""text-align:center;"">
                        <p style=""color:red; font-size:24px;"">Incorrect</p><p>You still have 2 points.</p>
                        <p> Press any key to continue. </p>
                    </div>
                    "
,,html-keyboard-response,27,2.0.0,169641,0myc60ayy5,692638df063c96e069476515,6932651197cd2a523915fb2c,34,socialPredictionGame,,,,"{""R"":10,""P"":5,""S"":10,""T"":5}",10.0,5.0,10.0,5.0,HG,Blue,coop,D.T.,opt_inv,def,7.0,0.0,4819.0,
,983.0,html-keyboard-response,28,2.0.0,170625,0myc60ayy5,692638df063c96e069476515,6932651197cd2a523915fb2c,34,feedbackTrial,Enter,,,,,,,,,,,,,,,,,"
                    <div style=""text-align:center;"">
                        <p style=""color:red; font-size:24px;"">Incorrect</p><p>You still have 2 points.</p>
                        <p> Press any key to continue. </p>
                    </div>
                    "
,,html-keyboard-response,29,2.0.0,173228,0myc60ayy5,692638df063c96e069476515,6932651197cd2a523915fb2c,34,socialPredictionGame,,,,"{""R"":10,""P"":5,""S"":3,""T"":5}",3.0,5.0,10.0,5.0,SH,Blue,coop,D.T.,opt_inv,def,7.0,0.0,2603.0,
,861.0,html-keyboard-response,30,2.0.0,174092,0myc60ayy5,692638df063c96e069476515,6932651197cd2a523915fb2c,34,feedbackTrial,Enter,,,,,,,,,,,,,,,,,"
                    <div style=""text-align:center;"">
                        <p style=""color:red; font-size:24px;"">Incorrect</p><p>You still have 2 points.</p>
                        <p> Press any key to continue. </p>
                    </div>
                    "
,,html-keyboard-response,31,2.0.0,177263,0myc60ayy5,692638df063c96e069476515,6932651197cd2a523915fb2c,34,socialPredictionGame,,,,"{""R"":10,""P"":5,""S"":10,""T"":8}",10.0,8.0,10.0,5.0,HG,Blue,coop,D.T.,opt_inv,def,7.0,0.0,3170.0,
,946.0,html-keyboard-response,32,2.0.0,178212,0myc60ayy5,692638df063c96e069476515,6932651197cd2a523915fb2c,34,feedbackTrial,Enter,,,,,,,,,,,,,,,,,"
                    <div style=""text-align:center;"">
                        <p style=""color:red; font-size:24px;"">Incorrect</p><p>You still have 2 points.</p>
                        <p> Press any key to continue. </p>
                    </div>
                    "
,,html-keyboard-response,33,2.0.0,180965,0myc60ayy5,692638df063c96e069476515,6932651197cd2a523915fb2c,34,socialPredictionGame,,,,"{""R"":10,""P"":5,""S"":7,""T"":8}",7.0,8.0,10.0,5.0,HG,Green,def,D.T.,opt_inv,def,7.0,1.0,2750.0,
,725.0,html-keyboard-response,34,2.0.0,181691,0myc60ayy5,692638df063c96e069476515,6932651197cd2a523915fb2c,34,feedbackTrial,Enter,,,,,,,,,,,,,,,,,"
                    <div style=""text-align:center;"">
                        <p style=""color:green; font-size:24px;"">Correct!</p><p>You now have 3 points.</p>
                        <p> Press any key to continue. </p>
                    </div>
                    "
,,html-keyboard-response,35,2.0.0,190759,0myc60ayy5,692638df063c96e069476515,6932651197cd2a523915fb2c,34,socialPredictionGame,,,,"{""R"":10,""P"":5,""S"":3,""T"":15}",3.0,15.0,10.0,5.0,PD,Green,def,D.T.,opt_inv,coop,7.0,0.0,9067.0,
,762.0,html-keyboard-response,36,2.0.0,191524,0myc60ayy5,692638df063c96e069476515,6932651197cd2a523915fb2c,34,feedbackTrial,Enter,,,,,,,,,,,,,,,,,"
                    <div style=""text-align:center;"">
                        <p style=""color:red; font-size:24px;"">Incorrect</p><p>You still have 3 points.</p>
                        <p> Press any key to continue. </p>
                    </div>
                    "
,,html-keyboard-response,37,2.0.0,195623,0myc60ayy5,692638df063c96e069476515,6932651197cd2a523915fb2c,34,socialPredictionGame,,,,"{""R"":10,""P"":5,""S"":0,""T"":15}",0.0,15.0,10.0,5.0,PD,Green,def,D.T.,opt_inv,coop,7.0,0.0,4099.0,
,721.0,html-keyboard-response,38,2.0.0,196346,0myc60ayy5,692638df063c96e069476515,6932651197cd2a523915fb2c,34,feedbackTrial,Enter,,,,,,,,,,,,,,,,,"
                    <div style=""text-align:center;"">
                        <p style=""color:red; font-size:24px;"">Incorrect</p><p>You still have 3 points.</p>
                        <p> Press any key to continue. </p>
                    </div>
                    "
,,html-keyboard-response,39,2.0.0,201501,0myc60ayy5,692638df063c96e069476515,6932651197cd2a523915fb2c,34,socialPredictionGame,,,,"{""R"":10,""P"":5,""S"":7,""T"":12}",7.0,12.0,10.0,5.0,SG,Green,def,D.T.,opt_inv,coop,7.0,0.0,5155.0,
,892.0,html-keyboard-response,40,2.0.0,202395,0myc60ayy5,692638df063c96e069476515,6932651197cd2a523915fb2c,34,feedbackTrial,Enter,,,,,,,,,,,,,,,,,"
                    <div style=""text-align:center;"">
                        <p style=""color:red; font-size:24px;"">Incorrect</p><p>You still have 3 points.</p>
                        <p> Press any key to continue. </p>
                    </div>
                    "
,,html-keyboard-response,41,2.0.0,206529,0myc60ayy5,692638df063c96e069476515,6932651197cd2a523915fb2c,34,socialPredictionGame,,,,"{""R"":10,""P"":5,""S"":7,""T"":5}",7.0,5.0,10.0,5.0,HG,Blue,coop,D.T.,opt_inv,def,7.0,0.0,4132.0,
,848.0,html-keyboard-response,42,2.0.0,207379,0myc60ayy5,692638df063c96e069476515,6932651197cd2a523915fb2c,34,feedbackTrial,Enter,,,,,,,,,,,,,,,,,"
                    <div style=""text-align:center;"">
                        <p style=""color:red; font-size:24px;"">Incorrect</p><p>You still have 3 points.</p>
                        <p> Press any key to continue. </p>
                    </div>
                    "
,46021.0,survey-html-form,43,2.1.0,253403,0myc60ayy5,692638df063c96e069476515,6932651197cd2a523915fb2c,34,strategyPrediction,"{""strategyPrediction"":""DT's strategy appears to be completely incoherent, the choice of blue and green neither favored a safer option nor exploiting the highest possible amount.""}",,,,,,,,,,,,,,,,,
"[{""page_index"":0,""viewing_time"":1843}]",1843.0,instructions,44,2.1.0,255249,0myc60ayy5,692638df063c96e069476515,6932651197cd2a523915fb2c,34,,,,,,,,,,,,,,,,,,,
,,html-keyboard-response,45,2.0.0,260331,0myc60ayy5,692638df063c96e069476515,6932651197cd2a523915fb2c,34,socialPredictionGame,,,,"{""R"":10,""P"":5,""S"":10,""T"":15}",10.0,15.0,10.0,5.0,SG,Red,coop,G.P.,pess_nat,coop,7.0,1.0,5080.0,
,1494.0,html-keyboard-response,46,2.0.0,261828,0myc60ayy5,692638df063c96e069476515,6932651197cd2a523915fb2c,34,feedbackTrial,Enter,,,,,,,,,,,,,,,,,"
                    <div style=""text-align:center;"">
                        <p style=""color:green; font-size:24px;"">Correct!</p><p>You now have 4 points.</p>
                        <p> Press any key to continue. </p>
                    </div>
                    "
,,html-keyboard-response,47,2.0.0,265131,0myc60ayy5,692638df063c96e069476515,6932651197cd2a523915fb2c,34,socialPredictionGame,,,,"{""R"":10,""P"":5,""S"":10,""T"":12}",10.0,12.0,10.0,5.0,SG,Red,coop,G.P.,pess_nat,coop,7.0,1.0,3302.0,
,831.0,html-keyboard-response,48,2.0.0,265963,0myc60ayy5,692638df063c96e069476515,6932651197cd2a523915fb2c,34,feedbackTrial,Enter,,,,,,,,,,,,,,,,,"
                    <div style=""text-align:center;"">
                        <p style=""color:green; font-size:24px;"">Correct!</p><p>You now have 5 points.</p>
                        <p> Press any key to continue. </p>
                    </div>
                    "
,,html-keyboard-response,49,2.0.0,268254,0myc60ayy5,692638df063c96e069476515,6932651197cd2a523915fb2c,34,socialPredictionGame,,,,"{""R"":10,""P"":5,""S"":0,""T"":5}",0.0,5.0,10.0,5.0,SH,Red,coop,G.P.,pess_nat,def,7.0,0.0,2290.0,
,840.0,html-keyboard-response,50,2.0.0,269097,0myc60ayy5,692638df063c96e069476515,6932651197cd2a523915fb2c,34,feedbackTrial,Enter,,,,,,,,,,,,,,,,,"
                    <div style=""text-align:center;"">
                        <p style=""color:red; font-size:24px;"">Incorrect</p><p>You still have 5 points.</p>
                        <p> Press any key to continue. </p>
                    </div>
                    "
,,html-keyboard-response,51,2.0.0,272709,0myc60ayy5,692638df063c96e069476515,6932651197cd2a523915fb2c,34,socialPredictionGame,,,,"{""R"":10,""P"":5,""S"":7,""T"":5}",7.0,5.0,10.0,5.0,HG,Red,coop,G.P.,pess_nat,coop,7.0,1.0,3612.0,
,772.0,html-keyboard-response,52,2.0.0,273484,0myc60ayy5,692638df063c96e069476515,6932651197cd2a523915fb2c,34,feedbackTrial,Enter,,,,,,,,,,,,,,,,,"
                    <div style=""text-align:center;"">
                        <p style=""color:green; font-size:24px;"">Correct!</p><p>You now have 6 points.</p>
                        <p> Press any key to continue. </p>
                    </div>
                    "
,,html-keyboard-response,53,2.0.0,276131,0myc60ayy5,692638df063c96e069476515,6932651197cd2a523915fb2c,34,socialPredictionGame,,,,"{""R"":10,""P"":5,""S"":0,""T"":8}",0.0,8.0,10.0,5.0,SH,Red,coop,G.P.,pess_nat,def,7.0,0.0,2646.0,
,756.0,html-keyboard-response,54,2.0.0,276888,0myc60ayy5,692638df063c96e069476515,6932651197cd2a523915fb2c,34,feedbackTrial,Enter,,,,,,,,,,,,,,,,,"
                    <div style=""text-align:center;"">
                        <p style=""color:red; font-size:24px;"">Incorrect</p><p>You still have 6 points.</p>
                        <p> Press any key to continue. </p>
                    </div>
                    "
,,html-keyboard-response,55,2.0.0,281497,0myc60ayy5,692638df063c96e069476515,6932651197cd2a523915fb2c,34,socialPredictionGame,,,,"{""R"":10,""P"":5,""S"":3,""T"":12}",3.0,12.0,10.0,5.0,PD,Red,coop,G.P.,pess_nat,def,7.0,0.0,4609.0,
,857.0,html-keyboard-response,56,2.0.0,282356,0myc60ayy5,692638df063c96e069476515,6932651197cd2a523915fb2c,34,feedbackTrial,Enter,,,,,,,,,,,,,,,,,"
                    <div style=""text-align:center;"">
                        <p style=""color:red; font-size:24px;"">Incorrect</p><p>You still have 6 points.</p>
                        <p> Press any key to continue. </p>
                    </div>
                    "
,,html-keyboard-response,57,2.0.0,285670,0myc60ayy5,692638df063c96e069476515,6932651197cd2a523915fb2c,34,socialPredictionGame,,,,"{""R"":10,""P"":5,""S"":7,""T"":12}",7.0,12.0,10.0,5.0,SG,Red,coop,G.P.,pess_nat,coop,7.0,1.0,3312.0,
,795.0,html-keyboard-response,58,2.0.0,286467,0myc60ayy5,692638df063c96e069476515,6932651197cd2a523915fb2c,34,feedbackTrial,Enter,,,,,,,,,,,,,,,,,"
                    <div style=""text-align:center;"">
                        <p style=""color:green; font-size:24px;"">Correct!</p><p>You now have 7 points.</p>
                        <p> Press any key to continue. </p>
                    </div>
                    "
,,html-keyboard-response,59,2.0.0,289612,0myc60ayy5,692638df063c96e069476515,6932651197cd2a523915fb2c,34,socialPredictionGame,,,,"{""R"":10,""P"":5,""S"":7,""T"":8}",7.0,8.0,10.0,5.0,HG,Purple,def,G.P.,pess_nat,coop,7.0,0.0,3142.0,
,672.0,html-keyboard-response,60,2.0.0,290284,0myc60ayy5,692638df063c96e069476515,6932651197cd2a523915fb2c,34,feedbackTrial,Enter,,,,,,,,,,,,,,,,,"
                    <div style=""text-align:center;"">
                        <p style=""color:red; font-size:24px;"">Incorrect</p><p>You still have 7 points.</p>
                        <p> Press any key to continue. </p>
                    </div>
                    "
,,html-keyboard-response,61,2.0.0,294489,0myc60ayy5,692638df063c96e069476515,6932651197cd2a523915fb2c,34,socialPredictionGame,,,,"{""R"":10,""P"":5,""S"":3,""T"":5}",3.0,5.0,10.0,5.0,SH,Red,coop,G.P.,pess_nat,def,7.0,0.0,4203.0,
,742.0,html-keyboard-response,62,2.0.0,295233,0myc60ayy5,692638df063c96e069476515,6932651197cd2a523915fb2c,34,feedbackTrial,Enter,,,,,,,,,,,,,,,,,"
                    <div style=""text-align:center;"">
                        <p style=""color:red; font-size:24px;"">Incorrect</p><p>You still have 7 points.</p>
                        <p> Press any key to continue. </p>
                    </div>
                    "
,,html-keyboard-response,63,2.0.0,301269,0myc60ayy5,692638df063c96e069476515,6932651197cd2a523915fb2c,34,socialPredictionGame,,,,"{""R"":10,""P"":5,""S"":0,""T"":15}",0.0,15.0,10.0,5.0,PD,Red,coop,G.P.,pess_nat,def,7.0,0.0,6035.0,
,916.0,html-keyboard-response,64,2.0.0,302187,0myc60ayy5,692638df063c96e069476515,6932651197cd2a523915fb2c,34,feedbackTrial,Enter,,,,,,,,,,,,,,,,,"
                    <div style=""text-align:center;"">
                        <p style=""color:red; font-size:24px;"">Incorrect</p><p>You still have 7 points.</p>
                        <p> Press any key to continue. </p>
                    </div>
                    "
,,html-keyboard-response,65,2.0.0,304644,0myc60ayy5,692638df063c96e069476515,6932651197cd2a523915fb2c,34,socialPredictionGame,,,,"{""R"":10,""P"":5,""S"":3,""T"":8}",3.0,8.0,10.0,5.0,SH,Red,coop,G.P.,pess_nat,def,7.0,0.0,2457.0,
,878.0,html-keyboard-response,66,2.0.0,305525,0myc60ayy5,692638df063c96e069476515,6932651197cd2a523915fb2c,34,feedbackTrial,Enter,,,,,,,,,,,,,,,,,"
                    <div style=""text-align:center;"">
                        <p style=""color:red; font-size:24px;"">Incorrect</p><p>You still have 7 points.</p>
                        <p> Press any key to continue. </p>
                    </div>
                    "
,,html-keyboard-response,67,2.0.0,308167,0myc60ayy5,692638df063c96e069476515,6932651197cd2a523915fb2c,34,socialPredictionGame,,,,"{""R"":10,""P"":5,""S"":7,""T"":15}",7.0,15.0,10.0,5.0,SG,Red,coop,G.P.,pess_nat,coop,7.0,1.0,2642.0,
,796.0,html-keyboard-response,68,2.0.0,308964,0myc60ayy5,692638df063c96e069476515,6932651197cd2a523915fb2c,34,feedbackTrial,Enter,,,,,,,,,,,,,,,,,"
                    <div style=""text-align:center;"">
                        <p style=""color:green; font-size:24px;"">Correct!</p><p>You now have 8 points.</p>
                        <p> Press any key to continue. </p>
                    </div>
                    "
,,html-keyboard-response,69,2.0.0,312351,0myc60ayy5,692638df063c96e069476515,6932651197cd2a523915fb2c,34,socialPredictionGame,,,,"{""R"":10,""P"":5,""S"":0,""T"":12}",0.0,12.0,10.0,5.0,PD,Red,coop,G.P.,pess_nat,def,7.0,0.0,3385.0,
,762.0,html-keyboard-response,70,2.0.0,313115,0myc60ayy5,692638df063c96e069476515,6932651197cd2a523915fb2c,34,feedbackTrial,Enter,,,,,,,,,,,,,,,,,"
                    <div style=""text-align:center;"">
                        <p style=""color:red; font-size:24px;"">Incorrect</p><p>You still have 8 points.</p>
                        <p> Press any key to continue. </p>
                    </div>
                    "
,,html-keyboard-response,71,2.0.0,317095,0myc60ayy5,692638df063c96e069476515,6932651197cd2a523915fb2c,34,socialPredictionGame,,,,"{""R"":10,""P"":5,""S"":10,""T"":5}",10.0,5.0,10.0,5.0,HG,Red,coop,G.P.,pess_nat,coop,7.0,1.0,3978.0,
,691.0,html-keyboard-response,72,2.0.0,317788,0myc60ayy5,692638df063c96e069476515,6932651197cd2a523915fb2c,34,feedbackTrial,Enter,,,,,,,,,,,,,,,,,"
                    <div style=""text-align:center;"">
                        <p style=""color:green; font-size:24px;"">Correct!</p><p>You now have 9 points.</p>
                        <p> Press any key to continue. </p>
                    </div>
                    "
,,html-keyboard-response,73,2.0.0,320872,0myc60ayy5,692638df063c96e069476515,6932651197cd2a523915fb2c,34,socialPredictionGame,,,,"{""R"":10,""P"":5,""S"":3,""T"":15}",3.0,15.0,10.0,5.0,PD,Red,coop,G.P.,pess_nat,def,7.0,0.0,3083.0,
,611.0,html-keyboard-response,74,2.0.0,321484,0myc60ayy5,692638df063c96e069476515,6932651197cd2a523915fb2c,34,feedbackTrial,Enter,,,,,,,,,,,,,,,,,"
                    <div style=""text-align:center;"">
                        <p style=""color:red; font-size:24px;"">Incorrect</p><p>You still have 9 points.</p>
                        <p> Press any key to continue. </p>
                    </div>
                    "
,,html-keyboard-response,75,2.0.0,325269,0myc60ayy5,692638df063c96e069476515,6932651197cd2a523915fb2c,34,socialPredictionGame,,,,"{""R"":10,""P"":5,""S"":10,""T"":8}",10.0,8.0,10.0,5.0,HG,Red,coop,G.P.,pess_nat,coop,7.0,1.0,3783.0,
,813.0,html-keyboard-response,76,2.0.0,326084,0myc60ayy5,692638df063c96e069476515,6932651197cd2a523915fb2c,34,feedbackTrial,Enter,,,,,,,,,,,,,,,,,"
                    <div style=""text-align:center;"">
                        <p style=""color:green; font-size:24px;"">Correct!</p><p>You now have 10 points.</p>
                        <p> Press any key to continue. </p>
                    </div>
                    "
,44589.0,survey-html-form,77,2.1.0,370673,0myc60ayy5,692638df063c96e069476515,6932651197cd2a523915fb2c,34,strategyPrediction,"{""strategyPrediction"":""I believed that GP was going to play it safe by going red/red and banking on the other player agreeing and consistently taking 10 points each but for some reason GP selected purple at non-optimal times. ""}",,,,,,,,,,,,,,,,,
"[{""page_index"":0,""viewing_time"":1349}]",1349.0,instructions,78,2.1.0,372024,0myc60ayy5,692638df063c96e069476515,6932651197cd2a523915fb2c,34,,,,,,,,,,,,,,,,,,,
,,html-keyboard-response,79,2.0.0,377484,0myc60ayy5,692638df063c96e069476515,6932651197cd2a523915fb2c,34,socialPredictionGame,,,,"{""R"":10,""P"":5,""S"":10,""T"":5}",10.0,5.0,10.0,5.0,HG,Purple,coop,E.B.,opt_nat,coop,7.0,1.0,5458.0,
,877.0,html-keyboard-response,80,2.0.0,378364,0myc60ayy5,692638df063c96e069476515,6932651197cd2a523915fb2c,34,feedbackTrial,Enter,,,,,,,,,,,,,,,,,"
                    <div style=""text-align:center;"">
                        <p style=""color:green; font-size:24px;"">Correct!</p><p>You now have 11 points.</p>
                        <p> Press any key to continue. </p>
                    </div>
                    "
,,html-keyboard-response,81,2.0.0,381819,0myc60ayy5,692638df063c96e069476515,6932651197cd2a523915fb2c,34,socialPredictionGame,,,,"{""R"":10,""P"":5,""S"":10,""T"":15}",10.0,15.0,10.0,5.0,SG,Green,def,E.B.,opt_nat,def,7.0,1.0,3455.0,
,870.0,html-keyboard-response,82,2.0.0,382691,0myc60ayy5,692638df063c96e069476515,6932651197cd2a523915fb2c,34,feedbackTrial,Enter,,,,,,,,,,,,,,,,,"
                    <div style=""text-align:center;"">
                        <p style=""color:green; font-size:24px;"">Correct!</p><p>You now have 12 points.</p>
                        <p> Press any key to continue. </p>
                    </div>
                    "
,,html-keyboard-response,83,2.0.0,386005,0myc60ayy5,692638df063c96e069476515,6932651197cd2a523915fb2c,34,socialPredictionGame,,,,"{""R"":10,""P"":5,""S"":0,""T"":8}",0.0,8.0,10.0,5.0,SH,Purple,coop,E.B.,opt_nat,coop,7.0,1.0,3311.0,
,812.0,html-keyboard-response,84,2.0.0,386819,0myc60ayy5,692638df063c96e069476515,6932651197cd2a523915fb2c,34,feedbackTrial,Enter,,,,,,,,,,,,,,,,,"
                    <div style=""text-align:center;"">
                        <p style=""color:green; font-size:24px;"">Correct!</p><p>You now have 13 points.</p>
                        <p> Press any key to continue. </p>
                    </div>
                    "
,,html-keyboard-response,85,2.0.0,391525,0myc60ayy5,692638df063c96e069476515,6932651197cd2a523915fb2c,34,socialPredictionGame,,,,"{""R"":10,""P"":5,""S"":7,""T"":8}",7.0,8.0,10.0,5.0,HG,Purple,coop,E.B.,opt_nat,coop,7.0,1.0,4703.0,
,1076.0,html-keyboard-response,86,2.0.0,392603,0myc60ayy5,692638df063c96e069476515,6932651197cd2a523915fb2c,34,feedbackTrial,Enter,,,,,,,,,,,,,,,,,"
                    <div style=""text-align:center;"">
                        <p style=""color:green; font-size:24px;"">Correct!</p><p>You now have 14 points.</p>
                        <p> Press any key to continue. </p>
                    </div>
                    "
,,html-keyboard-response,87,2.0.0,397375,0myc60ayy5,692638df063c96e069476515,6932651197cd2a523915fb2c,34,socialPredictionGame,,,,"{""R"":10,""P"":5,""S"":3,""T"":8}",3.0,8.0,10.0,5.0,SH,Purple,coop,E.B.,opt_nat,coop,7.0,1.0,4772.0,
,546.0,html-keyboard-response,88,2.0.0,397924,0myc60ayy5,692638df063c96e069476515,6932651197cd2a523915fb2c,34,feedbackTrial,Enter,,,,,,,,,,,,,,,,,"
                    <div style=""text-align:center;"">
                        <p style=""color:green; font-size:24px;"">Correct!</p><p>You now have 15 points.</p>
                        <p> Press any key to continue. </p>
                    </div>
                    "
,,html-keyboard-response,89,2.0.0,401246,0myc60ayy5,692638df063c96e069476515,6932651197cd2a523915fb2c,34,socialPredictionGame,,,,"{""R"":10,""P"":5,""S"":7,""T"":5}",7.0,5.0,10.0,5.0,HG,Purple,coop,E.B.,opt_nat,coop,7.0,1.0,3321.0,
,955.0,html-keyboard-response,90,2.0.0,402204,0myc60ayy5,692638df063c96e069476515,6932651197cd2a523915fb2c,34,feedbackTrial,Enter,,,,,,,,,,,,,,,,,"
                    <div style=""text-align:center;"">
                        <p style=""color:green; font-size:24px;"">Correct!</p><p>You now have 16 points.</p>
                        <p> Press any key to continue. </p>
                    </div>
                    "
,,html-keyboard-response,91,2.0.0,405625,0myc60ayy5,692638df063c96e069476515,6932651197cd2a523915fb2c,34,socialPredictionGame,,,,"{""R"":10,""P"":5,""S"":10,""T"":12}",10.0,12.0,10.0,5.0,SG,Green,def,E.B.,opt_nat,def,7.0,1.0,3422.0,
,664.0,html-keyboard-response,92,2.0.0,406292,0myc60ayy5,692638df063c96e069476515,6932651197cd2a523915fb2c,34,feedbackTrial,Enter,,,,,,,,,,,,,,,,,"
                    <div style=""text-align:center;"">
                        <p style=""color:green; font-size:24px;"">Correct!</p><p>You now have 17 points.</p>
                        <p> Press any key to continue. </p>
                    </div>
                    "
,,html-keyboard-response,93,2.0.0,414716,0myc60ayy5,692638df063c96e069476515,6932651197cd2a523915fb2c,34,socialPredictionGame,,,,"{""R"":10,""P"":5,""S"":3,""T"":12}",3.0,12.0,10.0,5.0,PD,Green,def,E.B.,opt_nat,def,7.0,1.0,8422.0,
,636.0,html-keyboard-response,94,2.0.0,415355,0myc60ayy5,692638df063c96e069476515,6932651197cd2a523915fb2c,34,feedbackTrial,Enter,,,,,,,,,,,,,,,,,"
                    <div style=""text-align:center;"">
                        <p style=""color:green; font-size:24px;"">Correct!</p><p>You now have 18 points.</p>
                        <p> Press any key to continue. </p>
                    </div>
                    "
,,html-keyboard-response,95,2.0.0,419031,0myc60ayy5,692638df063c96e069476515,6932651197cd2a523915fb2c,34,socialPredictionGame,,,,"{""R"":10,""P"":5,""S"":7,""T"":15}",7.0,15.0,10.0,5.0,SG,Green,def,E.B.,opt_nat,def,7.0,1.0,3675.0,
,579.0,html-keyboard-response,96,2.0.0,419612,0myc60ayy5,692638df063c96e069476515,6932651197cd2a523915fb2c,34,feedbackTrial,Enter,,,,,,,,,,,,,,,,,"
                    <div style=""text-align:center;"">
                        <p style=""color:green; font-size:24px;"">Correct!</p><p>You now have 19 points.</p>
                        <p> Press any key to continue. </p>
                    </div>
                    "
,,html-keyboard-response,97,2.0.0,423445,0myc60ayy5,692638df063c96e069476515,6932651197cd2a523915fb2c,34,socialPredictionGame,,,,"{""R"":10,""P"":5,""S"":3,""T"":5}",3.0,5.0,10.0,5.0,SH,Purple,coop,E.B.,opt_nat,coop,8.0,1.0,3834.0,
,695.0,html-keyboard-response,98,2.0.0,424144,0myc60ayy5,692638df063c96e069476515,6932651197cd2a523915fb2c,34,feedbackTrial,Enter,,,,,,,,,,,,,,,,,"
                    <div style=""text-align:center;"">
                        <p style=""color:green; font-size:24px;"">Correct!</p><p>You now have 20 points.</p>
                        <p> Press any key to continue. </p>
                    </div>
                    "
,,html-keyboard-response,99,2.0.0,428366,0myc60ayy5,692638df063c96e069476515,6932651197cd2a523915fb2c,34,socialPredictionGame,,,,"{""R"":10,""P"":5,""S"":0,""T"":15}",0.0,15.0,10.0,5.0,PD,Green,def,E.B.,opt_nat,def,7.0,1.0,4222.0,
,563.0,html-keyboard-response,100,2.0.0,428931,0myc60ayy5,692638df063c96e069476515,6932651197cd2a523915fb2c,34,feedbackTrial,Enter,,,,,,,,,,,,,,,,,"
                    <div style=""text-align:center;"">
                        <p style=""color:green; font-size:24px;"">Correct!</p><p>You now have 21 points.</p>
                        <p> Press any key to continue. </p>
                    </div>
                    "
,,html-keyboard-response,101,2.0.0,434714,0myc60ayy5,692638df063c96e069476515,6932651197cd2a523915fb2c,34,socialPredictionGame,,,,"{""R"":10,""P"":5,""S"":7,""T"":12}",7.0,12.0,10.0,5.0,SG,Green,def,E.B.,opt_nat,def,7.0,1.0,5781.0,
,694.0,html-keyboard-response,102,2.0.0,435411,0myc60ayy5,692638df063c96e069476515,6932651197cd2a523915fb2c,34,feedbackTrial,Enter,,,,,,,,,,,,,,,,,"
                    <div style=""text-align:center;"">
                        <p style=""color:green; font-size:24px;"">Correct!</p><p>You now have 22 points.</p>
                        <p> Press any key to continue. </p>
                    </div>
                    "
,,html-keyboard-response,103,2.0.0,439706,0myc60ayy5,692638df063c96e069476515,6932651197cd2a523915fb2c,34,socialPredictionGame,,,,"{""R"":10,""P"":5,""S"":10,""T"":8}",10.0,8.0,10.0,5.0,HG,Green,def,E.B.,opt_nat,coop,7.0,0.0,4294.0,
,616.0,html-keyboard-response,104,2.0.0,440324,0myc60ayy5,692638df063c96e069476515,6932651197cd2a523915fb2c,34,feedbackTrial,Enter,,,,,,,,,,,,,,,,,"
                    <div style=""text-align:center;"">
                        <p style=""color:red; font-size:24px;"">Incorrect</p><p>You still have 22 points.</p>
                        <p> Press any key to continue. </p>
                    </div>
                    "
,,html-keyboard-response,105,2.0.0,444431,0myc60ayy5,692638df063c96e069476515,6932651197cd2a523915fb2c,34,socialPredictionGame,,,,"{""R"":10,""P"":5,""S"":0,""T"":5}",0.0,5.0,10.0,5.0,SH,Purple,coop,E.B.,opt_nat,coop,8.0,1.0,4106.0,
,625.0,html-keyboard-response,106,2.0.0,445060,0myc60ayy5,692638df063c96e069476515,6932651197cd2a523915fb2c,34,feedbackTrial,Enter,,,,,,,,,,,,,,,,,"
                    <div style=""text-align:center;"">
                        <p style=""color:green; font-size:24px;"">Correct!</p><p>You now have 23 points.</p>
                        <p> Press any key to continue. </p>
                    </div>
                    "
,,html-keyboard-response,107,2.0.0,448391,0myc60ayy5,692638df063c96e069476515,6932651197cd2a523915fb2c,34,socialPredictionGame,,,,"{""R"":10,""P"":5,""S"":3,""T"":15}",3.0,15.0,10.0,5.0,PD,Green,def,E.B.,opt_nat,def,7.0,1.0,3330.0,
,642.0,html-keyboard-response,108,2.0.0,449035,0myc60ayy5,692638df063c96e069476515,6932651197cd2a523915fb2c,34,feedbackTrial,Enter,,,,,,,,,,,,,,,,,"
                    <div style=""text-align:center;"">
                        <p style=""color:green; font-size:24px;"">Correct!</p><p>You now have 24 points.</p>
                        <p> Press any key to continue. </p>
                    </div>
                    "
,,html-keyboard-response,109,2.0.0,452201,0myc60ayy5,692638df063c96e069476515,6932651197cd2a523915fb2c,34,socialPredictionGame,,,,"{""R"":10,""P"":5,""S"":0,""T"":12}",0.0,12.0,10.0,5.0,PD,Green,def,E.B.,opt_nat,def,7.0,1.0,3166.0,
,664.0,html-keyboard-response,110,2.0.0,452869,0myc60ayy5,692638df063c96e069476515,6932651197cd2a523915fb2c,34,feedbackTrial,Enter,,,,,,,,,,,,,,,,,"
                    <div style=""text-align:center;"">
                        <p style=""color:green; font-size:24px;"">Correct!</p><p>You now have 25 points.</p>
                        <p> Press any key to continue. </p>
                    </div>
                    "
,40296.0,survey-html-form,111,2.1.0,493167,0myc60ayy5,692638df063c96e069476515,6932651197cd2a523915fb2c,34,strategyPrediction,"{""strategyPrediction"":""EB played it safe with 10/10 unless the green option presented a likely improvement and worst case scenario of 5/5.""}",,,,,,,,,,,,,,,,,
"[{""page_index"":0,""viewing_time"":1150}]",1150.0,instructions,112,2.1.0,494319,0myc60ayy5,692638df063c96e069476515,6932651197cd2a523915fb2c,34,,,,,,,,,,,,,,,,,,,
,,html-keyboard-response,113,2.0.0,498624,0myc60ayy5,692638df063c96e069476515,6932651197cd2a523915fb2c,34,socialPredictionGame,,,,"{""R"":10,""P"":5,""S"":3,""T"":12}",3.0,12.0,10.0,5.0,PD,Red,coop,F.A.,pess_inv,coop,8.0,1.0,4303.0,
,1043.0,html-keyboard-response,114,2.0.0,499671,0myc60ayy5,692638df063c96e069476515,6932651197cd2a523915fb2c,34,feedbackTrial,Enter,,,,,,,,,,,,,,,,,"
                    <div style=""text-align:center;"">
                        <p style=""color:green; font-size:24px;"">Correct!</p><p>You now have 26 points.</p>
                        <p> Press any key to continue. </p>
                    </div>
                    "
,,html-keyboard-response,115,2.0.0,502572,0myc60ayy5,692638df063c96e069476515,6932651197cd2a523915fb2c,34,socialPredictionGame,,,,"{""R"":10,""P"":5,""S"":3,""T"":15}",3.0,15.0,10.0,5.0,PD,Blue,def,F.A.,pess_inv,coop,8.0,0.0,2901.0,
,844.0,html-keyboard-response,116,2.0.0,503418,0myc60ayy5,692638df063c96e069476515,6932651197cd2a523915fb2c,34,feedbackTrial,Enter,,,,,,,,,,,,,,,,,"
                    <div style=""text-align:center;"">
                        <p style=""color:red; font-size:24px;"">Incorrect</p><p>You still have 26 points.</p>
                        <p> Press any key to continue. </p>
                    </div>
                    "
,,html-keyboard-response,117,2.0.0,506364,0myc60ayy5,692638df063c96e069476515,6932651197cd2a523915fb2c,34,socialPredictionGame,,,,"{""R"":10,""P"":5,""S"":0,""T"":8}",0.0,8.0,10.0,5.0,SH,Red,coop,F.A.,pess_inv,coop,8.0,1.0,2947.0,
,939.0,html-keyboard-response,118,2.0.0,507305,0myc60ayy5,692638df063c96e069476515,6932651197cd2a523915fb2c,34,feedbackTrial,Enter,,,,,,,,,,,,,,,,,"
                    <div style=""text-align:center;"">
                        <p style=""color:green; font-size:24px;"">Correct!</p><p>You now have 27 points.</p>
                        <p> Press any key to continue. </p>
                    </div>
                    "
,,html-keyboard-response,119,2.0.0,509832,0myc60ayy5,692638df063c96e069476515,6932651197cd2a523915fb2c,34,socialPredictionGame,,,,"{""R"":10,""P"":5,""S"":3,""T"":5}",3.0,5.0,10.0,5.0,SH,Red,coop,F.A.,pess_inv,coop,8.0,1.0,2527.0,
,991.0,html-keyboard-response,120,2.0.0,510825,0myc60ayy5,692638df063c96e069476515,6932651197cd2a523915fb2c,34,feedbackTrial,Enter,,,,,,,,,,,,,,,,,"
                    <div style=""text-align:center;"">
                        <p style=""color:green; font-size:24px;"">Correct!</p><p>You now have 28 points.</p>
                        <p> Press any key to continue. </p>
                    </div>
                    "
,,html-keyboard-response,121,2.0.0,513222,0myc60ayy5,692638df063c96e069476515,6932651197cd2a523915fb2c,34,socialPredictionGame,,,,"{""R"":10,""P"":5,""S"":7,""T"":12}",7.0,12.0,10.0,5.0,SG,Red,coop,F.A.,pess_inv,def,8.0,0.0,2397.0,
,714.0,html-keyboard-response,122,2.0.0,513939,0myc60ayy5,692638df063c96e069476515,6932651197cd2a523915fb2c,34,feedbackTrial,Enter,,,,,,,,,,,,,,,,,"
                    <div style=""text-align:center;"">
                        <p style=""color:red; font-size:24px;"">Incorrect</p><p>You still have 28 points.</p>
                        <p> Press any key to continue. </p>
                    </div>
                    "
,,html-keyboard-response,123,2.0.0,519146,0myc60ayy5,692638df063c96e069476515,6932651197cd2a523915fb2c,34,socialPredictionGame,,,,"{""R"":10,""P"":5,""S"":3,""T"":8}",3.0,8.0,10.0,5.0,SH,Red,coop,F.A.,pess_inv,coop,8.0,1.0,5206.0,
,527.0,html-keyboard-response,124,2.0.0,519675,0myc60ayy5,692638df063c96e069476515,6932651197cd2a523915fb2c,34,feedbackTrial,Enter,,,,,,,,,,,,,,,,,"
                    <div style=""text-align:center;"">
                        <p style=""color:green; font-size:24px;"">Correct!</p><p>You now have 29 points.</p>
                        <p> Press any key to continue. </p>
                    </div>
                    "
,,html-keyboard-response,125,2.0.0,522625,0myc60ayy5,692638df063c96e069476515,6932651197cd2a523915fb2c,34,socialPredictionGame,,,,"{""R"":10,""P"":5,""S"":10,""T"":12}",10.0,12.0,10.0,5.0,SG,Blue,def,F.A.,pess_inv,def,8.0,1.0,2948.0,
,618.0,html-keyboard-response,126,2.0.0,523243,0myc60ayy5,692638df063c96e069476515,6932651197cd2a523915fb2c,34,feedbackTrial,Enter,,,,,,,,,,,,,,,,,"
                    <div style=""text-align:center;"">
                        <p style=""color:green; font-size:24px;"">Correct!</p><p>You now have 30 points.</p>
                        <p> Press any key to continue. </p>
                    </div>
                    "
,,html-keyboard-response,127,2.0.0,528550,0myc60ayy5,692638df063c96e069476515,6932651197cd2a523915fb2c,34,socialPredictionGame,,,,"{""R"":10,""P"":5,""S"":10,""T"":8}",10.0,8.0,10.0,5.0,HG,Red,coop,F.A.,pess_inv,def,8.0,0.0,5306.0,
,580.0,html-keyboard-response,128,2.0.0,529132,0myc60ayy5,692638df063c96e069476515,6932651197cd2a523915fb2c,34,feedbackTrial,Enter,,,,,,,,,,,,,,,,,"
                    <div style=""text-align:center;"">
                        <p style=""color:red; font-size:24px;"">Incorrect</p><p>You still have 30 points.</p>
                        <p> Press any key to continue. </p>
                    </div>
                    "
,,html-keyboard-response,129,2.0.0,532317,0myc60ayy5,692638df063c96e069476515,6932651197cd2a523915fb2c,34,socialPredictionGame,,,,"{""R"":10,""P"":5,""S"":0,""T"":5}",0.0,5.0,10.0,5.0,SH,Red,coop,F.A.,pess_inv,coop,7.0,1.0,3185.0,
,707.0,html-keyboard-response,130,2.0.0,533027,0myc60ayy5,692638df063c96e069476515,6932651197cd2a523915fb2c,34,feedbackTrial,Enter,,,,,,,,,,,,,,,,,"
                    <div style=""text-align:center;"">
                        <p style=""color:green; font-size:24px;"">Correct!</p><p>You now have 31 points.</p>
                        <p> Press any key to continue. </p>
                    </div>
                    "
,,html-keyboard-response,131,2.0.0,536531,0myc60ayy5,692638df063c96e069476515,6932651197cd2a523915fb2c,34,socialPredictionGame,,,,"{""R"":10,""P"":5,""S"":7,""T"":8}",7.0,8.0,10.0,5.0,HG,Red,coop,F.A.,pess_inv,def,8.0,0.0,3502.0,
,477.0,html-keyboard-response,132,2.0.0,537011,0myc60ayy5,692638df063c96e069476515,6932651197cd2a523915fb2c,34,feedbackTrial,Enter,,,,,,,,,,,,,,,,,"
                    <div style=""text-align:center;"">
                        <p style=""color:red; font-size:24px;"">Incorrect</p><p>You still have 31 points.</p>
                        <p> Press any key to continue. </p>
                    </div>
                    "
,,html-keyboard-response,133,2.0.0,542935,0myc60ayy5,692638df063c96e069476515,6932651197cd2a523915fb2c,34,socialPredictionGame,,,,"{""R"":10,""P"":5,""S"":0,""T"":12}",0.0,12.0,10.0,5.0,PD,Red,coop,F.A.,pess_inv,coop,8.0,1.0,5924.0,
,722.0,html-keyboard-response,134,2.0.0,543659,0myc60ayy5,692638df063c96e069476515,6932651197cd2a523915fb2c,34,feedbackTrial,Enter,,,,,,,,,,,,,,,,,"
                    <div style=""text-align:center;"">
                        <p style=""color:green; font-size:24px;"">Correct!</p><p>You now have 32 points.</p>
                        <p> Press any key to continue. </p>
                    </div>
                    "
,,html-keyboard-response,135,2.0.0,547047,0myc60ayy5,692638df063c96e069476515,6932651197cd2a523915fb2c,34,socialPredictionGame,,,,"{""R"":10,""P"":5,""S"":10,""T"":15}",10.0,15.0,10.0,5.0,SG,Blue,def,F.A.,pess_inv,def,8.0,1.0,3387.0,
,499.0,html-keyboard-response,136,2.0.0,547547,0myc60ayy5,692638df063c96e069476515,6932651197cd2a523915fb2c,34,feedbackTrial,Enter,,,,,,,,,,,,,,,,,"
                    <div style=""text-align:center;"">
                        <p style=""color:green; font-size:24px;"">Correct!</p><p>You now have 33 points.</p>
                        <p> Press any key to continue. </p>
                    </div>
                    "
,,html-keyboard-response,137,2.0.0,550543,0myc60ayy5,692638df063c96e069476515,6932651197cd2a523915fb2c,34,socialPredictionGame,,,,"{""R"":10,""P"":5,""S"":10,""T"":5}",10.0,5.0,10.0,5.0,HG,Red,coop,F.A.,pess_inv,def,8.0,0.0,2993.0,
,436.0,html-keyboard-response,138,2.0.0,550980,0myc60ayy5,692638df063c96e069476515,6932651197cd2a523915fb2c,34,feedbackTrial,Enter,,,,,,,,,,,,,,,,,"
                    <div style=""text-align:center;"">
                        <p style=""color:red; font-size:24px;"">Incorrect</p><p>You still have 33 points.</p>
                        <p> Press any key to continue. </p>
                    </div>
                    "
,,html-keyboard-response,139,2.0.0,553813,0myc60ayy5,692638df063c96e069476515,6932651197cd2a523915fb2c,34,socialPredictionGame,,,,"{""R"":10,""P"":5,""S"":7,""T"":5}",7.0,5.0,10.0,5.0,HG,Red,coop,F.A.,pess_inv,def,8.0,0.0,2831.0,
,669.0,html-keyboard-response,140,2.0.0,554484,0myc60ayy5,692638df063c96e069476515,6932651197cd2a523915fb2c,34,feedbackTrial,Enter,,,,,,,,,,,,,,,,,"
                    <div style=""text-align:center;"">
                        <p style=""color:red; font-size:24px;"">Incorrect</p><p>You still have 33 points.</p>
                        <p> Press any key to continue. </p>
                    </div>
                    "
,,html-keyboard-response,141,2.0.0,557321,0myc60ayy5,692638df063c96e069476515,6932651197cd2a523915fb2c,34,socialPredictionGame,,,,"{""R"":10,""P"":5,""S"":7,""T"":15}",7.0,15.0,10.0,5.0,SG,Blue,def,F.A.,pess_inv,def,8.0,1.0,2836.0,
,618.0,html-keyboard-response,142,2.0.0,557940,0myc60ayy5,692638df063c96e069476515,6932651197cd2a523915fb2c,34,feedbackTrial,Enter,,,,,,,,,,,,,,,,,"
                    <div style=""text-align:center;"">
                        <p style=""color:green; font-size:24px;"">Correct!</p><p>You now have 34 points.</p>
                        <p> Press any key to continue. </p>
                    </div>
                    "
,,html-keyboard-response,143,2.0.0,560636,0myc60ayy5,692638df063c96e069476515,6932651197cd2a523915fb2c,34,socialPredictionGame,,,,"{""R"":10,""P"":5,""S"":0,""T"":15}",0.0,15.0,10.0,5.0,PD,Blue,def,F.A.,pess_inv,coop,8.0,0.0,2695.0,
,645.0,html-keyboard-response,144,2.0.0,561284,0myc60ayy5,692638df063c96e069476515,6932651197cd2a523915fb2c,34,feedbackTrial,Enter,,,,,,,,,,,,,,,,,"
                    <div style=""text-align:center;"">
                        <p style=""color:red; font-size:24px;"">Incorrect</p><p>You still have 34 points.</p>
                        <p> Press any key to continue. </p>
                    </div>
                    "
,34225.0,survey-html-form,145,2.1.0,595511,0myc60ayy5,692638df063c96e069476515,6932651197cd2a523915fb2c,34,strategyPrediction,"{""strategyPrediction"":""FA seemed to favor the 10/10 safe corner option but sometimes chose blue even though none of the results were as good potentially as red. ""}",,,,,,,,,,,,,,,,,
,8551.0,survey-html-form,146,2.1.0,604065,0myc60ayy5,692638df063c96e069476515,6932651197cd2a523915fb2c,34,demographics,"{""age"":""44"",""gender"":""Male""}",,,,,,,,,,,,,,,,,
,14139.0,survey-html-form,147,2.1.0,618207,0myc60ayy5,692638df063c96e069476515,6932651197cd2a523915fb2c,34,technical,"{""technical"":""No issues, everything worked correctly."",""feedback"":""None that I can think of. ""}",,,,,,,,,,,,,,,,,
