view_history,rt,trial_type,trial_index,plugin_version,time_elapsed,subjectID,studyID,sessionID,overallBonusPoints,task,response,question_order,success,Matrix,S,T,R,P,GameType,choice,GivenAns,Player,PlayerType,CorrAns,confidence,ScoreNum,time_on_trial,stimulus
[{"page_index":0,"viewing_time":106591},{"page_index":1,"viewing_time":2580}],109172,instructions,0,2.1.0,109182,7udswjmebh,693e609928541f4126f49c4b,693e8cb7307ec3e156eb6f03,28,,,,,,,,,,,,,,,,,,,
[{"page_index":0,"viewing_time":329482}],329482,instructions,1,2.1.0,438670,7udswjmebh,693e609928541f4126f49c4b,693e8cb7307ec3e156eb6f03,28,,,,,,,,,,,,,,,,,,,
[{"page_index":0,"viewing_time":8411}],8411,instructions,2,2.1.0,447084,7udswjmebh,693e609928541f4126f49c4b,693e8cb7307ec3e156eb6f03,28,,,,,,,,,,,,,,,,,,,
,33535,survey-multi-choice,3,null,480623,7udswjmebh,693e609928541f4126f49c4b,693e8cb7307ec3e156eb6f03,28,comprehensionCheck,{"task":"Choose the option the anonymized participant chose","incentive":"Yes—they received bonuses based on their performance"},[0,1],,,,,,,,,,,,,,,,
,7724,fullscreen,4,2.1.0,489359,7udswjmebh,693e609928541f4126f49c4b,693e8cb7307ec3e156eb6f03,28,,,,true,,,,,,,,,,,,,,,
[{"page_index":0,"viewing_time":13229}],13229,instructions,5,2.1.0,502590,7udswjmebh,693e609928541f4126f49c4b,693e8cb7307ec3e156eb6f03,28,,,,,,,,,,,,,,,,,,,
,,html-keyboard-response,6,2.0.0,532933,7udswjmebh,693e609928541f4126f49c4b,693e8cb7307ec3e156eb6f03,28,playOwnGame,,,,{"R":10,"P":5,"S":3,"T":15},3,15,10,5,PD,Red,coop,,,,,,,
,,html-keyboard-response,7,2.0.0,543530,7udswjmebh,693e609928541f4126f49c4b,693e8cb7307ec3e156eb6f03,28,playOwnGame,,,,{"R":10,"P":5,"S":10,"T":8},10,8,10,5,HG,Red,coop,,,,,,,
,,html-keyboard-response,8,2.0.0,551950,7udswjmebh,693e609928541f4126f49c4b,693e8cb7307ec3e156eb6f03,28,playOwnGame,,,,{"R":10,"P":5,"S":7,"T":15},7,15,10,5,SG,Red,coop,,,,,,,
,,html-keyboard-response,9,2.0.0,563735,7udswjmebh,693e609928541f4126f49c4b,693e8cb7307ec3e156eb6f03,28,playOwnGame,,,,{"R":10,"P":5,"S":0,"T":5},0,5,10,5,SH,Blue,def,,,,,,,
[{"page_index":0,"viewing_time":4687}],4687,instructions,10,2.1.0,568424,7udswjmebh,693e609928541f4126f49c4b,693e8cb7307ec3e156eb6f03,28,,,,,,,,,,,,,,,,,,,
,,html-keyboard-response,11,2.0.0,581428,7udswjmebh,693e609928541f4126f49c4b,693e8cb7307ec3e156eb6f03,28,socialPredictionGame,,,,{"R":10,"P":5,"S":7,"T":12},7,12,10,5,SG,Red,coop,F.A.,pess_inv,def,10,0,13002,
,4949,html-keyboard-response,12,2.0.0,586379,7udswjmebh,693e609928541f4126f49c4b,693e8cb7307ec3e156eb6f03,28,feedbackTrial, ,,,,,,,,,,,,,,,,,
                    <div style="text-align:center;">
                        <p style="color:red; font-size:24px;">Incorrect</p><p>You still have 0 points.</p>
                        <p> Press any key to continue. </p>
                    </div>
                    
,,html-keyboard-response,13,2.0.0,597460,7udswjmebh,693e609928541f4126f49c4b,693e8cb7307ec3e156eb6f03,28,socialPredictionGame,,,,{"R":10,"P":5,"S":0,"T":15},0,15,10,5,PD,Purple,def,F.A.,pess_inv,coop,8,0,11075.899999999907,
,3025,html-keyboard-response,14,2.0.0,600487,7udswjmebh,693e609928541f4126f49c4b,693e8cb7307ec3e156eb6f03,28,feedbackTrial, ,,,,,,,,,,,,,,,,,
                    <div style="text-align:center;">
                        <p style="color:red; font-size:24px;">Incorrect</p><p>You still have 0 points.</p>
                        <p> Press any key to continue. </p>
                    </div>
                    
,,html-keyboard-response,15,2.0.0,611672,7udswjmebh,693e609928541f4126f49c4b,693e8cb7307ec3e156eb6f03,28,socialPredictionGame,,,,{"R":10,"P":5,"S":0,"T":12},0,12,10,5,PD,Red,coop,F.A.,pess_inv,coop,9,1,11181.600000000093,
,2711,html-keyboard-response,16,2.0.0,614386,7udswjmebh,693e609928541f4126f49c4b,693e8cb7307ec3e156eb6f03,28,feedbackTrial, ,,,,,,,,,,,,,,,,,
                    <div style="text-align:center;">
                        <p style="color:green; font-size:24px;">Correct!</p><p>You now have 1 points.</p>
                        <p> Press any key to continue. </p>
                    </div>
                    
,,html-keyboard-response,17,2.0.0,618830,7udswjmebh,693e609928541f4126f49c4b,693e8cb7307ec3e156eb6f03,28,socialPredictionGame,,,,{"R":10,"P":5,"S":10,"T":15},10,15,10,5,SG,Purple,def,F.A.,pess_inv,def,9,1,4440.299999999814,
,769,html-keyboard-response,18,2.0.0,619602,7udswjmebh,693e609928541f4126f49c4b,693e8cb7307ec3e156eb6f03,28,feedbackTrial, ,,,,,,,,,,,,,,,,,
                    <div style="text-align:center;">
                        <p style="color:green; font-size:24px;">Correct!</p><p>You now have 2 points.</p>
                        <p> Press any key to continue. </p>
                    </div>
                    
,,html-keyboard-response,19,2.0.0,624555,7udswjmebh,693e609928541f4126f49c4b,693e8cb7307ec3e156eb6f03,28,socialPredictionGame,,,,{"R":10,"P":5,"S":3,"T":15},3,15,10,5,PD,Red,coop,F.A.,pess_inv,coop,10,1,4949.199999999721,
,654,html-keyboard-response,20,2.0.0,625212,7udswjmebh,693e609928541f4126f49c4b,693e8cb7307ec3e156eb6f03,28,feedbackTrial, ,,,,,,,,,,,,,,,,,
                    <div style="text-align:center;">
                        <p style="color:green; font-size:24px;">Correct!</p><p>You now have 3 points.</p>
                        <p> Press any key to continue. </p>
                    </div>
                    
,,html-keyboard-response,21,2.0.0,630413,7udswjmebh,693e609928541f4126f49c4b,693e8cb7307ec3e156eb6f03,28,socialPredictionGame,,,,{"R":10,"P":5,"S":3,"T":5},3,5,10,5,SH,Purple,def,F.A.,pess_inv,coop,9,0,5196.699999999721,
,1499,html-keyboard-response,22,2.0.0,631914,7udswjmebh,693e609928541f4126f49c4b,693e8cb7307ec3e156eb6f03,28,feedbackTrial, ,,,,,,,,,,,,,,,,,
                    <div style="text-align:center;">
                        <p style="color:red; font-size:24px;">Incorrect</p><p>You still have 3 points.</p>
                        <p> Press any key to continue. </p>
                    </div>
                    
,,html-keyboard-response,23,2.0.0,637148,7udswjmebh,693e609928541f4126f49c4b,693e8cb7307ec3e156eb6f03,28,socialPredictionGame,,,,{"R":10,"P":5,"S":0,"T":5},0,5,10,5,SH,Red,coop,F.A.,pess_inv,coop,8,1,5230.4000000003725,
,879,html-keyboard-response,24,2.0.0,638030,7udswjmebh,693e609928541f4126f49c4b,693e8cb7307ec3e156eb6f03,28,feedbackTrial, ,,,,,,,,,,,,,,,,,
                    <div style="text-align:center;">
                        <p style="color:green; font-size:24px;">Correct!</p><p>You now have 4 points.</p>
                        <p> Press any key to continue. </p>
                    </div>
                    
,,html-keyboard-response,25,2.0.0,643088,7udswjmebh,693e609928541f4126f49c4b,693e8cb7307ec3e156eb6f03,28,socialPredictionGame,,,,{"R":10,"P":5,"S":7,"T":15},7,15,10,5,SG,Red,coop,F.A.,pess_inv,def,9,0,5054.199999999721,
,892,html-keyboard-response,26,2.0.0,643983,7udswjmebh,693e609928541f4126f49c4b,693e8cb7307ec3e156eb6f03,28,feedbackTrial, ,,,,,,,,,,,,,,,,,
                    <div style="text-align:center;">
                        <p style="color:red; font-size:24px;">Incorrect</p><p>You still have 4 points.</p>
                        <p> Press any key to continue. </p>
                    </div>
                    
,,html-keyboard-response,27,2.0.0,648478,7udswjmebh,693e609928541f4126f49c4b,693e8cb7307ec3e156eb6f03,28,socialPredictionGame,,,,{"R":10,"P":5,"S":3,"T":8},3,8,10,5,SH,Red,coop,F.A.,pess_inv,coop,8,1,4492.199999999721,
,577,html-keyboard-response,28,2.0.0,649058,7udswjmebh,693e609928541f4126f49c4b,693e8cb7307ec3e156eb6f03,28,feedbackTrial, ,,,,,,,,,,,,,,,,,
                    <div style="text-align:center;">
                        <p style="color:green; font-size:24px;">Correct!</p><p>You now have 5 points.</p>
                        <p> Press any key to continue. </p>
                    </div>
                    
,,html-keyboard-response,29,2.0.0,654028,7udswjmebh,693e609928541f4126f49c4b,693e8cb7307ec3e156eb6f03,28,socialPredictionGame,,,,{"R":10,"P":5,"S":0,"T":8},0,8,10,5,SH,Purple,def,F.A.,pess_inv,coop,9,0,4966.600000000093,
,869,html-keyboard-response,30,2.0.0,654900,7udswjmebh,693e609928541f4126f49c4b,693e8cb7307ec3e156eb6f03,28,feedbackTrial, ,,,,,,,,,,,,,,,,,
                    <div style="text-align:center;">
                        <p style="color:red; font-size:24px;">Incorrect</p><p>You still have 5 points.</p>
                        <p> Press any key to continue. </p>
                    </div>
                    
,,html-keyboard-response,31,2.0.0,659673,7udswjmebh,693e609928541f4126f49c4b,693e8cb7307ec3e156eb6f03,28,socialPredictionGame,,,,{"R":10,"P":5,"S":10,"T":12},10,12,10,5,SG,Purple,def,F.A.,pess_inv,def,8,1,4769.699999999721,
,881,html-keyboard-response,32,2.0.0,660556,7udswjmebh,693e609928541f4126f49c4b,693e8cb7307ec3e156eb6f03,28,feedbackTrial, ,,,,,,,,,,,,,,,,,
                    <div style="text-align:center;">
                        <p style="color:green; font-size:24px;">Correct!</p><p>You now have 6 points.</p>
                        <p> Press any key to continue. </p>
                    </div>
                    
,,html-keyboard-response,33,2.0.0,667811,7udswjmebh,693e609928541f4126f49c4b,693e8cb7307ec3e156eb6f03,28,socialPredictionGame,,,,{"R":10,"P":5,"S":10,"T":5},10,5,10,5,HG,Red,coop,F.A.,pess_inv,def,9,0,7251.600000000093,
,1742,html-keyboard-response,34,2.0.0,669555,7udswjmebh,693e609928541f4126f49c4b,693e8cb7307ec3e156eb6f03,28,feedbackTrial,f,,,,,,,,,,,,,,,,,
                    <div style="text-align:center;">
                        <p style="color:red; font-size:24px;">Incorrect</p><p>You still have 6 points.</p>
                        <p> Press any key to continue. </p>
                    </div>
                    
,,html-keyboard-response,35,2.0.0,672595,7udswjmebh,693e609928541f4126f49c4b,693e8cb7307ec3e156eb6f03,28,socialPredictionGame,,,,{"R":10,"P":5,"S":7,"T":8},7,8,10,5,HG,Purple,def,F.A.,pess_inv,def,8,1,3036.899999999907,
,1327,html-keyboard-response,36,2.0.0,673924,7udswjmebh,693e609928541f4126f49c4b,693e8cb7307ec3e156eb6f03,28,feedbackTrial,g,,,,,,,,,,,,,,,,,
                    <div style="text-align:center;">
                        <p style="color:green; font-size:24px;">Correct!</p><p>You now have 7 points.</p>
                        <p> Press any key to continue. </p>
                    </div>
                    
,,html-keyboard-response,37,2.0.0,677733,7udswjmebh,693e609928541f4126f49c4b,693e8cb7307ec3e156eb6f03,28,socialPredictionGame,,,,{"R":10,"P":5,"S":7,"T":5},7,5,10,5,HG,Purple,def,F.A.,pess_inv,def,7,1,3805.5,
,1235,html-keyboard-response,38,2.0.0,678970,7udswjmebh,693e609928541f4126f49c4b,693e8cb7307ec3e156eb6f03,28,feedbackTrial,g,,,,,,,,,,,,,,,,,
                    <div style="text-align:center;">
                        <p style="color:green; font-size:24px;">Correct!</p><p>You now have 8 points.</p>
                        <p> Press any key to continue. </p>
                    </div>
                    
,,html-keyboard-response,39,2.0.0,683186,7udswjmebh,693e609928541f4126f49c4b,693e8cb7307ec3e156eb6f03,28,socialPredictionGame,,,,{"R":10,"P":5,"S":10,"T":8},10,8,10,5,HG,Purple,def,F.A.,pess_inv,def,9,1,4213.700000000186,
,755,html-keyboard-response,40,2.0.0,683943,7udswjmebh,693e609928541f4126f49c4b,693e8cb7307ec3e156eb6f03,28,feedbackTrial,g,,,,,,,,,,,,,,,,,
                    <div style="text-align:center;">
                        <p style="color:green; font-size:24px;">Correct!</p><p>You now have 9 points.</p>
                        <p> Press any key to continue. </p>
                    </div>
                    
,,html-keyboard-response,41,2.0.0,687256,7udswjmebh,693e609928541f4126f49c4b,693e8cb7307ec3e156eb6f03,28,socialPredictionGame,,,,{"R":10,"P":5,"S":3,"T":12},3,12,10,5,PD,Purple,def,F.A.,pess_inv,coop,8,0,3309.100000000093,
,598,html-keyboard-response,42,2.0.0,687855,7udswjmebh,693e609928541f4126f49c4b,693e8cb7307ec3e156eb6f03,28,feedbackTrial,g,,,,,,,,,,,,,,,,,
                    <div style="text-align:center;">
                        <p style="color:red; font-size:24px;">Incorrect</p><p>You still have 9 points.</p>
                        <p> Press any key to continue. </p>
                    </div>
                    
,43410,survey-html-form,43,2.1.0,731268,7udswjmebh,693e609928541f4126f49c4b,693e8cb7307ec3e156eb6f03,28,strategyPrediction,{"strategyPrediction":"A prediction about an outcome of an item"},,,,,,,,,,,,,,,,,
[{"page_index":0,"viewing_time":4215}],4215,instructions,44,2.1.0,735485,7udswjmebh,693e609928541f4126f49c4b,693e8cb7307ec3e156eb6f03,28,,,,,,,,,,,,,,,,,,,
,,html-keyboard-response,45,2.0.0,740800,7udswjmebh,693e609928541f4126f49c4b,693e8cb7307ec3e156eb6f03,28,socialPredictionGame,,,,{"R":10,"P":5,"S":7,"T":8},7,8,10,5,HG,Blue,def,G.P.,pess_nat,coop,8,0,5314.100000000093,
,1497,html-keyboard-response,46,2.0.0,742299,7udswjmebh,693e609928541f4126f49c4b,693e8cb7307ec3e156eb6f03,28,feedbackTrial,v,,,,,,,,,,,,,,,,,
                    <div style="text-align:center;">
                        <p style="color:red; font-size:24px;">Incorrect</p><p>You still have 9 points.</p>
                        <p> Press any key to continue. </p>
                    </div>
                    
,,html-keyboard-response,47,2.0.0,746510,7udswjmebh,693e609928541f4126f49c4b,693e8cb7307ec3e156eb6f03,28,socialPredictionGame,,,,{"R":10,"P":5,"S":0,"T":15},0,15,10,5,PD,Red,coop,G.P.,pess_nat,def,6,0,4207.899999999907,
,988,html-keyboard-response,48,2.0.0,747499,7udswjmebh,693e609928541f4126f49c4b,693e8cb7307ec3e156eb6f03,28,feedbackTrial,v,,,,,,,,,,,,,,,,,
                    <div style="text-align:center;">
                        <p style="color:red; font-size:24px;">Incorrect</p><p>You still have 9 points.</p>
                        <p> Press any key to continue. </p>
                    </div>
                    
,,html-keyboard-response,49,2.0.0,751076,7udswjmebh,693e609928541f4126f49c4b,693e8cb7307ec3e156eb6f03,28,socialPredictionGame,,,,{"R":10,"P":5,"S":3,"T":8},3,8,10,5,SH,Blue,def,G.P.,pess_nat,def,8,1,3573.5,
,665,html-keyboard-response,50,2.0.0,751742,7udswjmebh,693e609928541f4126f49c4b,693e8cb7307ec3e156eb6f03,28,feedbackTrial,v,,,,,,,,,,,,,,,,,
                    <div style="text-align:center;">
                        <p style="color:green; font-size:24px;">Correct!</p><p>You now have 10 points.</p>
                        <p> Press any key to continue. </p>
                    </div>
                    
,,html-keyboard-response,51,2.0.0,754547,7udswjmebh,693e609928541f4126f49c4b,693e8cb7307ec3e156eb6f03,28,socialPredictionGame,,,,{"R":10,"P":5,"S":3,"T":5},3,5,10,5,SH,Blue,def,G.P.,pess_nat,def,7,1,2804.3000000002794,
,483,html-keyboard-response,52,2.0.0,755032,7udswjmebh,693e609928541f4126f49c4b,693e8cb7307ec3e156eb6f03,28,feedbackTrial,v,,,,,,,,,,,,,,,,,
                    <div style="text-align:center;">
                        <p style="color:green; font-size:24px;">Correct!</p><p>You now have 11 points.</p>
                        <p> Press any key to continue. </p>
                    </div>
                    
,,html-keyboard-response,53,2.0.0,758301,7udswjmebh,693e609928541f4126f49c4b,693e8cb7307ec3e156eb6f03,28,socialPredictionGame,,,,{"R":10,"P":5,"S":10,"T":5},10,5,10,5,HG,Blue,def,G.P.,pess_nat,coop,9,0,3268.2999999998137,
,458,html-keyboard-response,54,2.0.0,758760,7udswjmebh,693e609928541f4126f49c4b,693e8cb7307ec3e156eb6f03,28,feedbackTrial,v,,,,,,,,,,,,,,,,,
                    <div style="text-align:center;">
                        <p style="color:red; font-size:24px;">Incorrect</p><p>You still have 11 points.</p>
                        <p> Press any key to continue. </p>
                    </div>
                    
,,html-keyboard-response,55,2.0.0,761741,7udswjmebh,693e609928541f4126f49c4b,693e8cb7307ec3e156eb6f03,28,socialPredictionGame,,,,{"R":10,"P":5,"S":3,"T":15},3,15,10,5,PD,Red,coop,G.P.,pess_nat,def,8,0,2980.2000000001863,
,489,html-keyboard-response,56,2.0.0,762231,7udswjmebh,693e609928541f4126f49c4b,693e8cb7307ec3e156eb6f03,28,feedbackTrial,v,,,,,,,,,,,,,,,,,
                    <div style="text-align:center;">
                        <p style="color:red; font-size:24px;">Incorrect</p><p>You still have 11 points.</p>
                        <p> Press any key to continue. </p>
                    </div>
                    
,,html-keyboard-response,57,2.0.0,765611,7udswjmebh,693e609928541f4126f49c4b,693e8cb7307ec3e156eb6f03,28,socialPredictionGame,,,,{"R":10,"P":5,"S":10,"T":15},10,15,10,5,SG,Blue,def,G.P.,pess_nat,coop,8,0,3377.7999999998137,
,533,html-keyboard-response,58,2.0.0,766145,7udswjmebh,693e609928541f4126f49c4b,693e8cb7307ec3e156eb6f03,28,feedbackTrial,v,,,,,,,,,,,,,,,,,
                    <div style="text-align:center;">
                        <p style="color:red; font-size:24px;">Incorrect</p><p>You still have 11 points.</p>
                        <p> Press any key to continue. </p>
                    </div>
                    
,,html-keyboard-response,59,2.0.0,770967,7udswjmebh,693e609928541f4126f49c4b,693e8cb7307ec3e156eb6f03,28,socialPredictionGame,,,,{"R":10,"P":5,"S":0,"T":12},0,12,10,5,PD,Blue,def,G.P.,pess_nat,def,8,1,4819.5,
,423,html-keyboard-response,60,2.0.0,771391,7udswjmebh,693e609928541f4126f49c4b,693e8cb7307ec3e156eb6f03,28,feedbackTrial,v,,,,,,,,,,,,,,,,,
                    <div style="text-align:center;">
                        <p style="color:green; font-size:24px;">Correct!</p><p>You now have 12 points.</p>
                        <p> Press any key to continue. </p>
                    </div>
                    
,,html-keyboard-response,61,2.0.0,774490,7udswjmebh,693e609928541f4126f49c4b,693e8cb7307ec3e156eb6f03,28,socialPredictionGame,,,,{"R":10,"P":5,"S":0,"T":5},0,5,10,5,SH,Red,coop,G.P.,pess_nat,def,9,0,3097.8000000002794,
,765,html-keyboard-response,62,2.0.0,775256,7udswjmebh,693e609928541f4126f49c4b,693e8cb7307ec3e156eb6f03,28,feedbackTrial,v,,,,,,,,,,,,,,,,,
                    <div style="text-align:center;">
                        <p style="color:red; font-size:24px;">Incorrect</p><p>You still have 12 points.</p>
                        <p> Press any key to continue. </p>
                    </div>
                    
,,html-keyboard-response,63,2.0.0,778615,7udswjmebh,693e609928541f4126f49c4b,693e8cb7307ec3e156eb6f03,28,socialPredictionGame,,,,{"R":10,"P":5,"S":3,"T":12},3,12,10,5,PD,Blue,def,G.P.,pess_nat,def,8,1,3358,
,550,html-keyboard-response,64,2.0.0,779166,7udswjmebh,693e609928541f4126f49c4b,693e8cb7307ec3e156eb6f03,28,feedbackTrial,v,,,,,,,,,,,,,,,,,
                    <div style="text-align:center;">
                        <p style="color:green; font-size:24px;">Correct!</p><p>You now have 13 points.</p>
                        <p> Press any key to continue. </p>
                    </div>
                    
,,html-keyboard-response,65,2.0.0,781820,7udswjmebh,693e609928541f4126f49c4b,693e8cb7307ec3e156eb6f03,28,socialPredictionGame,,,,{"R":10,"P":5,"S":7,"T":15},7,15,10,5,SG,Blue,def,G.P.,pess_nat,coop,8,0,2653.100000000093,
,510,html-keyboard-response,66,2.0.0,782331,7udswjmebh,693e609928541f4126f49c4b,693e8cb7307ec3e156eb6f03,28,feedbackTrial,v,,,,,,,,,,,,,,,,,
                    <div style="text-align:center;">
                        <p style="color:red; font-size:24px;">Incorrect</p><p>You still have 13 points.</p>
                        <p> Press any key to continue. </p>
                    </div>
                    
,,html-keyboard-response,67,2.0.0,785519,7udswjmebh,693e609928541f4126f49c4b,693e8cb7307ec3e156eb6f03,28,socialPredictionGame,,,,{"R":10,"P":5,"S":7,"T":5},7,5,10,5,HG,Blue,def,G.P.,pess_nat,coop,8,0,3186.2999999998137,
,332,html-keyboard-response,68,2.0.0,785853,7udswjmebh,693e609928541f4126f49c4b,693e8cb7307ec3e156eb6f03,28,feedbackTrial,v,,,,,,,,,,,,,,,,,
                    <div style="text-align:center;">
                        <p style="color:red; font-size:24px;">Incorrect</p><p>You still have 13 points.</p>
                        <p> Press any key to continue. </p>
                    </div>
                    
,,html-keyboard-response,69,2.0.0,789207,7udswjmebh,693e609928541f4126f49c4b,693e8cb7307ec3e156eb6f03,28,socialPredictionGame,,,,{"R":10,"P":5,"S":10,"T":8},10,8,10,5,HG,Red,coop,G.P.,pess_nat,coop,8,1,3352.899999999907,
,493,html-keyboard-response,70,2.0.0,789702,7udswjmebh,693e609928541f4126f49c4b,693e8cb7307ec3e156eb6f03,28,feedbackTrial,v,,,,,,,,,,,,,,,,,
                    <div style="text-align:center;">
                        <p style="color:green; font-size:24px;">Correct!</p><p>You now have 14 points.</p>
                        <p> Press any key to continue. </p>
                    </div>
                    
,,html-keyboard-response,71,2.0.0,792824,7udswjmebh,693e609928541f4126f49c4b,693e8cb7307ec3e156eb6f03,28,socialPredictionGame,,,,{"R":10,"P":5,"S":10,"T":12},10,12,10,5,SG,Red,coop,G.P.,pess_nat,coop,8,1,3119.2000000001863,
,497,html-keyboard-response,72,2.0.0,793322,7udswjmebh,693e609928541f4126f49c4b,693e8cb7307ec3e156eb6f03,28,feedbackTrial,v,,,,,,,,,,,,,,,,,
                    <div style="text-align:center;">
                        <p style="color:green; font-size:24px;">Correct!</p><p>You now have 15 points.</p>
                        <p> Press any key to continue. </p>
                    </div>
                    
,,html-keyboard-response,73,2.0.0,795828,7udswjmebh,693e609928541f4126f49c4b,693e8cb7307ec3e156eb6f03,28,socialPredictionGame,,,,{"R":10,"P":5,"S":0,"T":8},0,8,10,5,SH,Blue,def,G.P.,pess_nat,def,8,1,2504.9000000003725,
,463,html-keyboard-response,74,2.0.0,796291,7udswjmebh,693e609928541f4126f49c4b,693e8cb7307ec3e156eb6f03,28,feedbackTrial,v,,,,,,,,,,,,,,,,,
                    <div style="text-align:center;">
                        <p style="color:green; font-size:24px;">Correct!</p><p>You now have 16 points.</p>
                        <p> Press any key to continue. </p>
                    </div>
                    
,,html-keyboard-response,75,2.0.0,799993,7udswjmebh,693e609928541f4126f49c4b,693e8cb7307ec3e156eb6f03,28,socialPredictionGame,,,,{"R":10,"P":5,"S":7,"T":12},7,12,10,5,SG,Blue,def,G.P.,pess_nat,coop,8,0,3701.2999999998137,
,313,html-keyboard-response,76,2.0.0,800308,7udswjmebh,693e609928541f4126f49c4b,693e8cb7307ec3e156eb6f03,28,feedbackTrial,v,,,,,,,,,,,,,,,,,
                    <div style="text-align:center;">
                        <p style="color:red; font-size:24px;">Incorrect</p><p>You still have 16 points.</p>
                        <p> Press any key to continue. </p>
                    </div>
                    
,15828,survey-html-form,77,2.1.0,816139,7udswjmebh,693e609928541f4126f49c4b,693e8cb7307ec3e156eb6f03,28,strategyPrediction,{"strategyPrediction":"The outcome of items"},,,,,,,,,,,,,,,,,
[{"page_index":0,"viewing_time":1393}],1393,instructions,78,2.1.0,817533,7udswjmebh,693e609928541f4126f49c4b,693e8cb7307ec3e156eb6f03,28,,,,,,,,,,,,,,,,,,,
,,html-keyboard-response,79,2.0.0,827211,7udswjmebh,693e609928541f4126f49c4b,693e8cb7307ec3e156eb6f03,28,socialPredictionGame,,,,{"R":10,"P":5,"S":3,"T":5},3,5,10,5,SH,Purple,def,E.B.,opt_nat,coop,8,0,9676.19999999972,
,1113,html-keyboard-response,80,2.0.0,828325,7udswjmebh,693e609928541f4126f49c4b,693e8cb7307ec3e156eb6f03,28,feedbackTrial, ,,,,,,,,,,,,,,,,,
                    <div style="text-align:center;">
                        <p style="color:red; font-size:24px;">Incorrect</p><p>You still have 16 points.</p>
                        <p> Press any key to continue. </p>
                    </div>
                    
,,html-keyboard-response,81,2.0.0,831979,7udswjmebh,693e609928541f4126f49c4b,693e8cb7307ec3e156eb6f03,28,socialPredictionGame,,,,{"R":10,"P":5,"S":10,"T":15},10,15,10,5,SG,Blue,coop,E.B.,opt_nat,def,8,0,3650.1999999997206,
,484,html-keyboard-response,82,2.0.0,832464,7udswjmebh,693e609928541f4126f49c4b,693e8cb7307ec3e156eb6f03,28,feedbackTrial, ,,,,,,,,,,,,,,,,,
                    <div style="text-align:center;">
                        <p style="color:red; font-size:24px;">Incorrect</p><p>You still have 16 points.</p>
                        <p> Press any key to continue. </p>
                    </div>
                    
,,html-keyboard-response,83,2.0.0,835845,7udswjmebh,693e609928541f4126f49c4b,693e8cb7307ec3e156eb6f03,28,socialPredictionGame,,,,{"R":10,"P":5,"S":0,"T":8},0,8,10,5,SH,Blue,coop,E.B.,opt_nat,coop,8,1,3377.899999999907,
,579,html-keyboard-response,84,2.0.0,836425,7udswjmebh,693e609928541f4126f49c4b,693e8cb7307ec3e156eb6f03,28,feedbackTrial, ,,,,,,,,,,,,,,,,,
                    <div style="text-align:center;">
                        <p style="color:green; font-size:24px;">Correct!</p><p>You now have 17 points.</p>
                        <p> Press any key to continue. </p>
                    </div>
                    
,,html-keyboard-response,85,2.0.0,840189,7udswjmebh,693e609928541f4126f49c4b,693e8cb7307ec3e156eb6f03,28,socialPredictionGame,,,,{"R":10,"P":5,"S":7,"T":8},7,8,10,5,HG,Purple,def,E.B.,opt_nat,coop,8,0,3763.6999999997206,
,296,html-keyboard-response,86,2.0.0,840487,7udswjmebh,693e609928541f4126f49c4b,693e8cb7307ec3e156eb6f03,28,feedbackTrial, ,,,,,,,,,,,,,,,,,
                    <div style="text-align:center;">
                        <p style="color:red; font-size:24px;">Incorrect</p><p>You still have 17 points.</p>
                        <p> Press any key to continue. </p>
                    </div>
                    
,,html-keyboard-response,87,2.0.0,843625,7udswjmebh,693e609928541f4126f49c4b,693e8cb7307ec3e156eb6f03,28,socialPredictionGame,,,,{"R":10,"P":5,"S":7,"T":15},7,15,10,5,SG,Blue,coop,E.B.,opt_nat,def,7,0,3134.5,
,343,html-keyboard-response,88,2.0.0,843969,7udswjmebh,693e609928541f4126f49c4b,693e8cb7307ec3e156eb6f03,28,feedbackTrial, ,,,,,,,,,,,,,,,,,
                    <div style="text-align:center;">
                        <p style="color:red; font-size:24px;">Incorrect</p><p>You still have 17 points.</p>
                        <p> Press any key to continue. </p>
                    </div>
                    
,,html-keyboard-response,89,2.0.0,846713,7udswjmebh,693e609928541f4126f49c4b,693e8cb7307ec3e156eb6f03,28,socialPredictionGame,,,,{"R":10,"P":5,"S":0,"T":12},0,12,10,5,PD,Blue,coop,E.B.,opt_nat,def,8,0,2740,
,189,html-keyboard-response,90,2.0.0,846902,7udswjmebh,693e609928541f4126f49c4b,693e8cb7307ec3e156eb6f03,28,feedbackTrial, ,,,,,,,,,,,,,,,,,
                    <div style="text-align:center;">
                        <p style="color:red; font-size:24px;">Incorrect</p><p>You still have 17 points.</p>
                        <p> Press any key to continue. </p>
                    </div>
                    
,,html-keyboard-response,91,2.0.0,849509,7udswjmebh,693e609928541f4126f49c4b,693e8cb7307ec3e156eb6f03,28,socialPredictionGame,,,,{"R":10,"P":5,"S":3,"T":12},3,12,10,5,PD,Purple,def,E.B.,opt_nat,def,8,1,2605.899999999907,
,405,html-keyboard-response,92,2.0.0,849915,7udswjmebh,693e609928541f4126f49c4b,693e8cb7307ec3e156eb6f03,28,feedbackTrial, ,,,,,,,,,,,,,,,,,
                    <div style="text-align:center;">
                        <p style="color:green; font-size:24px;">Correct!</p><p>You now have 18 points.</p>
                        <p> Press any key to continue. </p>
                    </div>
                    
,,html-keyboard-response,93,2.0.0,852649,7udswjmebh,693e609928541f4126f49c4b,693e8cb7307ec3e156eb6f03,28,socialPredictionGame,,,,{"R":10,"P":5,"S":10,"T":8},10,8,10,5,HG,Purple,def,E.B.,opt_nat,coop,8,0,2733,
,390,html-keyboard-response,94,2.0.0,853041,7udswjmebh,693e609928541f4126f49c4b,693e8cb7307ec3e156eb6f03,28,feedbackTrial, ,,,,,,,,,,,,,,,,,
                    <div style="text-align:center;">
                        <p style="color:red; font-size:24px;">Incorrect</p><p>You still have 18 points.</p>
                        <p> Press any key to continue. </p>
                    </div>
                    
,,html-keyboard-response,95,2.0.0,856193,7udswjmebh,693e609928541f4126f49c4b,693e8cb7307ec3e156eb6f03,28,socialPredictionGame,,,,{"R":10,"P":5,"S":3,"T":15},3,15,10,5,PD,Blue,coop,E.B.,opt_nat,def,8,0,3151.100000000093,
,418,html-keyboard-response,96,2.0.0,856612,7udswjmebh,693e609928541f4126f49c4b,693e8cb7307ec3e156eb6f03,28,feedbackTrial, ,,,,,,,,,,,,,,,,,
                    <div style="text-align:center;">
                        <p style="color:red; font-size:24px;">Incorrect</p><p>You still have 18 points.</p>
                        <p> Press any key to continue. </p>
                    </div>
                    
,,html-keyboard-response,97,2.0.0,860263,7udswjmebh,693e609928541f4126f49c4b,693e8cb7307ec3e156eb6f03,28,socialPredictionGame,,,,{"R":10,"P":5,"S":10,"T":5},10,5,10,5,HG,Blue,coop,E.B.,opt_nat,coop,7,1,3649.8000000002794,
,565,html-keyboard-response,98,2.0.0,860830,7udswjmebh,693e609928541f4126f49c4b,693e8cb7307ec3e156eb6f03,28,feedbackTrial, ,,,,,,,,,,,,,,,,,
                    <div style="text-align:center;">
                        <p style="color:green; font-size:24px;">Correct!</p><p>You now have 19 points.</p>
                        <p> Press any key to continue. </p>
                    </div>
                    
,,html-keyboard-response,99,2.0.0,863990,7udswjmebh,693e609928541f4126f49c4b,693e8cb7307ec3e156eb6f03,28,socialPredictionGame,,,,{"R":10,"P":5,"S":3,"T":8},3,8,10,5,SH,Blue,coop,E.B.,opt_nat,coop,7,1,3157.2999999998137,
,547,html-keyboard-response,100,2.0.0,864539,7udswjmebh,693e609928541f4126f49c4b,693e8cb7307ec3e156eb6f03,28,feedbackTrial, ,,,,,,,,,,,,,,,,,
                    <div style="text-align:center;">
                        <p style="color:green; font-size:24px;">Correct!</p><p>You now have 20 points.</p>
                        <p> Press any key to continue. </p>
                    </div>
                    
,,html-keyboard-response,101,2.0.0,867083,7udswjmebh,693e609928541f4126f49c4b,693e8cb7307ec3e156eb6f03,28,socialPredictionGame,,,,{"R":10,"P":5,"S":0,"T":15},0,15,10,5,PD,Purple,def,E.B.,opt_nat,def,7,1,2542.399999999907,
,320,html-keyboard-response,102,2.0.0,867405,7udswjmebh,693e609928541f4126f49c4b,693e8cb7307ec3e156eb6f03,28,feedbackTrial, ,,,,,,,,,,,,,,,,,
                    <div style="text-align:center;">
                        <p style="color:green; font-size:24px;">Correct!</p><p>You now have 21 points.</p>
                        <p> Press any key to continue. </p>
                    </div>
                    
,,html-keyboard-response,103,2.0.0,871283,7udswjmebh,693e609928541f4126f49c4b,693e8cb7307ec3e156eb6f03,28,socialPredictionGame,,,,{"R":10,"P":5,"S":7,"T":12},7,12,10,5,SG,Blue,coop,E.B.,opt_nat,def,10,0,3874.5,
,549,html-keyboard-response,104,2.0.0,871833,7udswjmebh,693e609928541f4126f49c4b,693e8cb7307ec3e156eb6f03,28,feedbackTrial, ,,,,,,,,,,,,,,,,,
                    <div style="text-align:center;">
                        <p style="color:red; font-size:24px;">Incorrect</p><p>You still have 21 points.</p>
                        <p> Press any key to continue. </p>
                    </div>
                    
,,html-keyboard-response,105,2.0.0,874161,7udswjmebh,693e609928541f4126f49c4b,693e8cb7307ec3e156eb6f03,28,socialPredictionGame,,,,{"R":10,"P":5,"S":10,"T":12},10,12,10,5,SG,Purple,def,E.B.,opt_nat,def,10,1,2326.899999999907,
,376,html-keyboard-response,106,2.0.0,874538,7udswjmebh,693e609928541f4126f49c4b,693e8cb7307ec3e156eb6f03,28,feedbackTrial, ,,,,,,,,,,,,,,,,,
                    <div style="text-align:center;">
                        <p style="color:green; font-size:24px;">Correct!</p><p>You now have 22 points.</p>
                        <p> Press any key to continue. </p>
                    </div>
                    
,,html-keyboard-response,107,2.0.0,877517,7udswjmebh,693e609928541f4126f49c4b,693e8cb7307ec3e156eb6f03,28,socialPredictionGame,,,,{"R":10,"P":5,"S":0,"T":5},0,5,10,5,SH,Purple,def,E.B.,opt_nat,coop,10,0,2977.399999999907,
,392,html-keyboard-response,108,2.0.0,877910,7udswjmebh,693e609928541f4126f49c4b,693e8cb7307ec3e156eb6f03,28,feedbackTrial, ,,,,,,,,,,,,,,,,,
                    <div style="text-align:center;">
                        <p style="color:red; font-size:24px;">Incorrect</p><p>You still have 22 points.</p>
                        <p> Press any key to continue. </p>
                    </div>
                    
,,html-keyboard-response,109,2.0.0,881039,7udswjmebh,693e609928541f4126f49c4b,693e8cb7307ec3e156eb6f03,28,socialPredictionGame,,,,{"R":10,"P":5,"S":7,"T":5},7,5,10,5,HG,Purple,def,E.B.,opt_nat,coop,10,0,3125.2999999998137,
,506,html-keyboard-response,110,2.0.0,881546,7udswjmebh,693e609928541f4126f49c4b,693e8cb7307ec3e156eb6f03,28,feedbackTrial, ,,,,,,,,,,,,,,,,,
                    <div style="text-align:center;">
                        <p style="color:red; font-size:24px;">Incorrect</p><p>You still have 22 points.</p>
                        <p> Press any key to continue. </p>
                    </div>
                    
,13154,survey-html-form,111,2.1.0,894703,7udswjmebh,693e609928541f4126f49c4b,693e8cb7307ec3e156eb6f03,28,strategyPrediction,{"strategyPrediction":"It was prediction of items "},,,,,,,,,,,,,,,,,
[{"page_index":0,"viewing_time":1587}],1587,instructions,112,2.1.0,896292,7udswjmebh,693e609928541f4126f49c4b,693e8cb7307ec3e156eb6f03,28,,,,,,,,,,,,,,,,,,,
,,html-keyboard-response,113,2.0.0,899665,7udswjmebh,693e609928541f4126f49c4b,693e8cb7307ec3e156eb6f03,28,socialPredictionGame,,,,{"R":10,"P":5,"S":10,"T":8},10,8,10,5,HG,Blue,coop,D.T.,opt_inv,def,10,0,3371.100000000093,
,1456,html-keyboard-response,114,2.0.0,901122,7udswjmebh,693e609928541f4126f49c4b,693e8cb7307ec3e156eb6f03,28,feedbackTrial, ,,,,,,,,,,,,,,,,,
                    <div style="text-align:center;">
                        <p style="color:red; font-size:24px;">Incorrect</p><p>You still have 22 points.</p>
                        <p> Press any key to continue. </p>
                    </div>
                    
,,html-keyboard-response,115,2.0.0,903806,7udswjmebh,693e609928541f4126f49c4b,693e8cb7307ec3e156eb6f03,28,socialPredictionGame,,,,{"R":10,"P":5,"S":0,"T":12},0,12,10,5,PD,Green,def,D.T.,opt_inv,coop,10,0,2680.5,
,818,html-keyboard-response,116,2.0.0,904625,7udswjmebh,693e609928541f4126f49c4b,693e8cb7307ec3e156eb6f03,28,feedbackTrial, ,,,,,,,,,,,,,,,,,
                    <div style="text-align:center;">
                        <p style="color:red; font-size:24px;">Incorrect</p><p>You still have 22 points.</p>
                        <p> Press any key to continue. </p>
                    </div>
                    
,,html-keyboard-response,117,2.0.0,907794,7udswjmebh,693e609928541f4126f49c4b,693e8cb7307ec3e156eb6f03,28,socialPredictionGame,,,,{"R":10,"P":5,"S":3,"T":8},3,8,10,5,SH,Blue,coop,D.T.,opt_inv,def,10,0,3165.5999999996275,
,547,html-keyboard-response,118,2.0.0,908342,7udswjmebh,693e609928541f4126f49c4b,693e8cb7307ec3e156eb6f03,28,feedbackTrial, ,,,,,,,,,,,,,,,,,
                    <div style="text-align:center;">
                        <p style="color:red; font-size:24px;">Incorrect</p><p>You still have 22 points.</p>
                        <p> Press any key to continue. </p>
                    </div>
                    
,,html-keyboard-response,119,2.0.0,911771,7udswjmebh,693e609928541f4126f49c4b,693e8cb7307ec3e156eb6f03,28,socialPredictionGame,,,,{"R":10,"P":5,"S":0,"T":15},0,15,10,5,PD,Blue,coop,D.T.,opt_inv,coop,10,1,3426.5999999996275,
,378,html-keyboard-response,120,2.0.0,912150,7udswjmebh,693e609928541f4126f49c4b,693e8cb7307ec3e156eb6f03,28,feedbackTrial, ,,,,,,,,,,,,,,,,,
                    <div style="text-align:center;">
                        <p style="color:green; font-size:24px;">Correct!</p><p>You now have 23 points.</p>
                        <p> Press any key to continue. </p>
                    </div>
                    
,,html-keyboard-response,121,2.0.0,914926,7udswjmebh,693e609928541f4126f49c4b,693e8cb7307ec3e156eb6f03,28,socialPredictionGame,,,,{"R":10,"P":5,"S":7,"T":15},7,15,10,5,SG,Green,def,D.T.,opt_inv,coop,10,0,2775.1999999997206,
,394,html-keyboard-response,122,2.0.0,915322,7udswjmebh,693e609928541f4126f49c4b,693e8cb7307ec3e156eb6f03,28,feedbackTrial, ,,,,,,,,,,,,,,,,,
                    <div style="text-align:center;">
                        <p style="color:red; font-size:24px;">Incorrect</p><p>You still have 23 points.</p>
                        <p> Press any key to continue. </p>
                    </div>
                    
,,html-keyboard-response,123,2.0.0,919069,7udswjmebh,693e609928541f4126f49c4b,693e8cb7307ec3e156eb6f03,28,socialPredictionGame,,,,{"R":10,"P":5,"S":10,"T":12},10,12,10,5,SG,Green,def,D.T.,opt_inv,coop,10,0,3744.899999999907,
,477,html-keyboard-response,124,2.0.0,919547,7udswjmebh,693e609928541f4126f49c4b,693e8cb7307ec3e156eb6f03,28,feedbackTrial, ,,,,,,,,,,,,,,,,,
                    <div style="text-align:center;">
                        <p style="color:red; font-size:24px;">Incorrect</p><p>You still have 23 points.</p>
                        <p> Press any key to continue. </p>
                    </div>
                    
,,html-keyboard-response,125,2.0.0,922260,7udswjmebh,693e609928541f4126f49c4b,693e8cb7307ec3e156eb6f03,28,socialPredictionGame,,,,{"R":10,"P":5,"S":3,"T":15},3,15,10,5,PD,Blue,coop,D.T.,opt_inv,coop,10,1,2709,
,519,html-keyboard-response,126,2.0.0,922781,7udswjmebh,693e609928541f4126f49c4b,693e8cb7307ec3e156eb6f03,28,feedbackTrial, ,,,,,,,,,,,,,,,,,
                    <div style="text-align:center;">
                        <p style="color:green; font-size:24px;">Correct!</p><p>You now have 24 points.</p>
                        <p> Press any key to continue. </p>
                    </div>
                    
,,html-keyboard-response,127,2.0.0,925961,7udswjmebh,693e609928541f4126f49c4b,693e8cb7307ec3e156eb6f03,28,socialPredictionGame,,,,{"R":10,"P":5,"S":3,"T":12},3,12,10,5,PD,Blue,coop,D.T.,opt_inv,coop,10,1,3176.7000000001863,
,536,html-keyboard-response,128,2.0.0,926498,7udswjmebh,693e609928541f4126f49c4b,693e8cb7307ec3e156eb6f03,28,feedbackTrial, ,,,,,,,,,,,,,,,,,
                    <div style="text-align:center;">
                        <p style="color:green; font-size:24px;">Correct!</p><p>You now have 25 points.</p>
                        <p> Press any key to continue. </p>
                    </div>
                    
,,html-keyboard-response,129,2.0.0,929435,7udswjmebh,693e609928541f4126f49c4b,693e8cb7307ec3e156eb6f03,28,socialPredictionGame,,,,{"R":10,"P":5,"S":3,"T":5},3,5,10,5,SH,Blue,coop,D.T.,opt_inv,def,10,0,2933.899999999907,
,450,html-keyboard-response,130,2.0.0,929887,7udswjmebh,693e609928541f4126f49c4b,693e8cb7307ec3e156eb6f03,28,feedbackTrial, ,,,,,,,,,,,,,,,,,
                    <div style="text-align:center;">
                        <p style="color:red; font-size:24px;">Incorrect</p><p>You still have 25 points.</p>
                        <p> Press any key to continue. </p>
                    </div>
                    
,,html-keyboard-response,131,2.0.0,933330,7udswjmebh,693e609928541f4126f49c4b,693e8cb7307ec3e156eb6f03,28,socialPredictionGame,,,,{"R":10,"P":5,"S":7,"T":12},7,12,10,5,SG,Green,def,D.T.,opt_inv,coop,10,0,3439.6999999997206,
,474,html-keyboard-response,132,2.0.0,933806,7udswjmebh,693e609928541f4126f49c4b,693e8cb7307ec3e156eb6f03,28,feedbackTrial, ,,,,,,,,,,,,,,,,,
                    <div style="text-align:center;">
                        <p style="color:red; font-size:24px;">Incorrect</p><p>You still have 25 points.</p>
                        <p> Press any key to continue. </p>
                    </div>
                    
,,html-keyboard-response,133,2.0.0,936861,7udswjmebh,693e609928541f4126f49c4b,693e8cb7307ec3e156eb6f03,28,socialPredictionGame,,,,{"R":10,"P":5,"S":7,"T":8},7,8,10,5,HG,Blue,coop,D.T.,opt_inv,def,10,0,3051.100000000093,
,419,html-keyboard-response,134,2.0.0,937282,7udswjmebh,693e609928541f4126f49c4b,693e8cb7307ec3e156eb6f03,28,feedbackTrial, ,,,,,,,,,,,,,,,,,
                    <div style="text-align:center;">
                        <p style="color:red; font-size:24px;">Incorrect</p><p>You still have 25 points.</p>
                        <p> Press any key to continue. </p>
                    </div>
                    
,,html-keyboard-response,135,2.0.0,940088,7udswjmebh,693e609928541f4126f49c4b,693e8cb7307ec3e156eb6f03,28,socialPredictionGame,,,,{"R":10,"P":5,"S":10,"T":15},10,15,10,5,SG,Blue,coop,D.T.,opt_inv,coop,9,1,2803.5,
,542,html-keyboard-response,136,2.0.0,940632,7udswjmebh,693e609928541f4126f49c4b,693e8cb7307ec3e156eb6f03,28,feedbackTrial, ,,,,,,,,,,,,,,,,,
                    <div style="text-align:center;">
                        <p style="color:green; font-size:24px;">Correct!</p><p>You now have 26 points.</p>
                        <p> Press any key to continue. </p>
                    </div>
                    
,,html-keyboard-response,137,2.0.0,943921,7udswjmebh,693e609928541f4126f49c4b,693e8cb7307ec3e156eb6f03,28,socialPredictionGame,,,,{"R":10,"P":5,"S":10,"T":5},10,5,10,5,HG,Blue,coop,D.T.,opt_inv,def,9,0,3288.600000000093,
,447,html-keyboard-response,138,2.0.0,944369,7udswjmebh,693e609928541f4126f49c4b,693e8cb7307ec3e156eb6f03,28,feedbackTrial, ,,,,,,,,,,,,,,,,,
                    <div style="text-align:center;">
                        <p style="color:red; font-size:24px;">Incorrect</p><p>You still have 26 points.</p>
                        <p> Press any key to continue. </p>
                    </div>
                    
,,html-keyboard-response,139,2.0.0,947441,7udswjmebh,693e609928541f4126f49c4b,693e8cb7307ec3e156eb6f03,28,socialPredictionGame,,,,{"R":10,"P":5,"S":0,"T":5},0,5,10,5,SH,Green,def,D.T.,opt_inv,def,9,1,3068.8000000002794,
,374,html-keyboard-response,140,2.0.0,947816,7udswjmebh,693e609928541f4126f49c4b,693e8cb7307ec3e156eb6f03,28,feedbackTrial, ,,,,,,,,,,,,,,,,,
                    <div style="text-align:center;">
                        <p style="color:green; font-size:24px;">Correct!</p><p>You now have 27 points.</p>
                        <p> Press any key to continue. </p>
                    </div>
                    
,,html-keyboard-response,141,2.0.0,951404,7udswjmebh,693e609928541f4126f49c4b,693e8cb7307ec3e156eb6f03,28,socialPredictionGame,,,,{"R":10,"P":5,"S":0,"T":8},0,8,10,5,SH,Blue,coop,D.T.,opt_inv,def,10,0,3584.2999999998137,
,489,html-keyboard-response,142,2.0.0,951894,7udswjmebh,693e609928541f4126f49c4b,693e8cb7307ec3e156eb6f03,28,feedbackTrial, ,,,,,,,,,,,,,,,,,
                    <div style="text-align:center;">
                        <p style="color:red; font-size:24px;">Incorrect</p><p>You still have 27 points.</p>
                        <p> Press any key to continue. </p>
                    </div>
                    
,,html-keyboard-response,143,2.0.0,954725,7udswjmebh,693e609928541f4126f49c4b,693e8cb7307ec3e156eb6f03,28,socialPredictionGame,,,,{"R":10,"P":5,"S":7,"T":5},7,5,10,5,HG,Green,def,D.T.,opt_inv,def,10,1,2827.6999999997206,
,423,html-keyboard-response,144,2.0.0,955149,7udswjmebh,693e609928541f4126f49c4b,693e8cb7307ec3e156eb6f03,28,feedbackTrial, ,,,,,,,,,,,,,,,,,
                    <div style="text-align:center;">
                        <p style="color:green; font-size:24px;">Correct!</p><p>You now have 28 points.</p>
                        <p> Press any key to continue. </p>
                    </div>
                    
,12899,survey-html-form,145,2.1.0,968051,7udswjmebh,693e609928541f4126f49c4b,693e8cb7307ec3e156eb6f03,28,strategyPrediction,{"strategyPrediction":"The outcome of items"},,,,,,,,,,,,,,,,,
,5174,survey-html-form,146,2.1.0,973227,7udswjmebh,693e609928541f4126f49c4b,693e8cb7307ec3e156eb6f03,28,demographics,{"age":"41","gender":"Female"},,,,,,,,,,,,,,,,,
,14148,survey-html-form,147,2.1.0,987377,7udswjmebh,693e609928541f4126f49c4b,693e8cb7307ec3e156eb6f03,28,technical,{"technical":"No","feedback":"The study was good"},,,,,,,,,,,,,,,,,
