view_history,rt,trial_type,trial_index,plugin_version,time_elapsed,subjectID,studyID,sessionID,overallBonusPoints,task,response,question_order,success,Matrix,S,T,R,P,GameType,choice,GivenAns,Player,PlayerType,CorrAns,confidence,ScoreNum,time_on_trial,stimulus
[{"page_index":0,"viewing_time":108293},{"page_index":1,"viewing_time":20332}],128625,instructions,0,2.1.0,128668,awbqx0cg6x,692638df063c96e069476515,693273301db3fa123bdd41ee,37,,,,,,,,,,,,,,,,,,,
[{"page_index":0,"viewing_time":75481}],75481,instructions,1,2.1.0,204155,awbqx0cg6x,692638df063c96e069476515,693273301db3fa123bdd41ee,37,,,,,,,,,,,,,,,,,,,
[{"page_index":0,"viewing_time":4322}],4322,instructions,2,2.1.0,208482,awbqx0cg6x,692638df063c96e069476515,693273301db3fa123bdd41ee,37,,,,,,,,,,,,,,,,,,,
,10342,survey-multi-choice,3,null,218835,awbqx0cg6x,692638df063c96e069476515,693273301db3fa123bdd41ee,37,comprehensionCheck,{"task":"Choose the option the anonymized participant chose","incentive":"Yes—they received bonuses based on their performance"},[0,1],,,,,,,,,,,,,,,,
,3218,fullscreen,4,2.1.0,223063,awbqx0cg6x,692638df063c96e069476515,693273301db3fa123bdd41ee,37,,,,true,,,,,,,,,,,,,,,
[{"page_index":0,"viewing_time":7128}],7128,instructions,5,2.1.0,230197,awbqx0cg6x,692638df063c96e069476515,693273301db3fa123bdd41ee,37,,,,,,,,,,,,,,,,,,,
,,html-keyboard-response,6,2.0.0,253402,awbqx0cg6x,692638df063c96e069476515,693273301db3fa123bdd41ee,37,playOwnGame,,,,{"R":10,"P":5,"S":0,"T":8},0,8,10,5,SH,Red,coop,,,,,,,
,,html-keyboard-response,7,2.0.0,259881,awbqx0cg6x,692638df063c96e069476515,693273301db3fa123bdd41ee,37,playOwnGame,,,,{"R":10,"P":5,"S":3,"T":15},3,15,10,5,PD,Red,coop,,,,,,,
,,html-keyboard-response,8,2.0.0,266341,awbqx0cg6x,692638df063c96e069476515,693273301db3fa123bdd41ee,37,playOwnGame,,,,{"R":10,"P":5,"S":7,"T":5},7,5,10,5,HG,Red,coop,,,,,,,
,,html-keyboard-response,9,2.0.0,272311,awbqx0cg6x,692638df063c96e069476515,693273301db3fa123bdd41ee,37,playOwnGame,,,,{"R":10,"P":5,"S":7,"T":15},7,15,10,5,SG,Red,coop,,,,,,,
[{"page_index":0,"viewing_time":4052}],4052,instructions,10,2.1.0,276366,awbqx0cg6x,692638df063c96e069476515,693273301db3fa123bdd41ee,37,,,,,,,,,,,,,,,,,,,
,,html-keyboard-response,11,2.0.0,288849,awbqx0cg6x,692638df063c96e069476515,693273301db3fa123bdd41ee,37,socialPredictionGame,,,,{"R":10,"P":5,"S":0,"T":12},0,12,10,5,PD,Blue,coop,D.T.,opt_inv,coop,2,1,12477.900000000373,
,2885,html-keyboard-response,12,2.0.0,291741,awbqx0cg6x,692638df063c96e069476515,693273301db3fa123bdd41ee,37,feedbackTrial, ,,,,,,,,,,,,,,,,,
                    <div style="text-align:center;">
                        <p style="color:green; font-size:24px;">Correct!</p><p>You now have 1 points.</p>
                        <p> Press any key to continue. </p>
                    </div>
                    
,,html-keyboard-response,13,2.0.0,300106,awbqx0cg6x,692638df063c96e069476515,693273301db3fa123bdd41ee,37,socialPredictionGame,,,,{"R":10,"P":5,"S":0,"T":8},0,8,10,5,SH,Blue,coop,D.T.,opt_inv,def,4,0,8354.299999999814,
,1456,html-keyboard-response,14,2.0.0,301565,awbqx0cg6x,692638df063c96e069476515,693273301db3fa123bdd41ee,37,feedbackTrial, ,,,,,,,,,,,,,,,,,
                    <div style="text-align:center;">
                        <p style="color:red; font-size:24px;">Incorrect</p><p>You still have 1 points.</p>
                        <p> Press any key to continue. </p>
                    </div>
                    
,,html-keyboard-response,15,2.0.0,312279,awbqx0cg6x,692638df063c96e069476515,693273301db3fa123bdd41ee,37,socialPredictionGame,,,,{"R":10,"P":5,"S":7,"T":15},7,15,10,5,SG,Purple,def,D.T.,opt_inv,coop,2,0,10711,
,1251,html-keyboard-response,16,2.0.0,313534,awbqx0cg6x,692638df063c96e069476515,693273301db3fa123bdd41ee,37,feedbackTrial, ,,,,,,,,,,,,,,,,,
                    <div style="text-align:center;">
                        <p style="color:red; font-size:24px;">Incorrect</p><p>You still have 1 points.</p>
                        <p> Press any key to continue. </p>
                    </div>
                    
,,html-keyboard-response,17,2.0.0,319343,awbqx0cg6x,692638df063c96e069476515,693273301db3fa123bdd41ee,37,socialPredictionGame,,,,{"R":10,"P":5,"S":0,"T":5},0,5,10,5,SH,Blue,coop,D.T.,opt_inv,def,2,0,5805.4000000003725,
,1023,html-keyboard-response,18,2.0.0,320370,awbqx0cg6x,692638df063c96e069476515,693273301db3fa123bdd41ee,37,feedbackTrial, ,,,,,,,,,,,,,,,,,
                    <div style="text-align:center;">
                        <p style="color:red; font-size:24px;">Incorrect</p><p>You still have 1 points.</p>
                        <p> Press any key to continue. </p>
                    </div>
                    
,,html-keyboard-response,19,2.0.0,327081,awbqx0cg6x,692638df063c96e069476515,693273301db3fa123bdd41ee,37,socialPredictionGame,,,,{"R":10,"P":5,"S":10,"T":12},10,12,10,5,SG,Blue,coop,D.T.,opt_inv,coop,2,1,6700.5999999996275,
,1100,html-keyboard-response,20,2.0.0,328186,awbqx0cg6x,692638df063c96e069476515,693273301db3fa123bdd41ee,37,feedbackTrial, ,,,,,,,,,,,,,,,,,
                    <div style="text-align:center;">
                        <p style="color:green; font-size:24px;">Correct!</p><p>You now have 2 points.</p>
                        <p> Press any key to continue. </p>
                    </div>
                    
,,html-keyboard-response,21,2.0.0,332693,awbqx0cg6x,692638df063c96e069476515,693273301db3fa123bdd41ee,37,socialPredictionGame,,,,{"R":10,"P":5,"S":7,"T":5},7,5,10,5,HG,Purple,def,D.T.,opt_inv,def,2,1,4497.200000000186,
,1163,html-keyboard-response,22,2.0.0,333859,awbqx0cg6x,692638df063c96e069476515,693273301db3fa123bdd41ee,37,feedbackTrial, ,,,,,,,,,,,,,,,,,
                    <div style="text-align:center;">
                        <p style="color:green; font-size:24px;">Correct!</p><p>You now have 3 points.</p>
                        <p> Press any key to continue. </p>
                    </div>
                    
,,html-keyboard-response,23,2.0.0,337091,awbqx0cg6x,692638df063c96e069476515,693273301db3fa123bdd41ee,37,socialPredictionGame,,,,{"R":10,"P":5,"S":7,"T":12},7,12,10,5,SG,Blue,coop,D.T.,opt_inv,coop,6,1,3221.5,
,1164,html-keyboard-response,24,2.0.0,338258,awbqx0cg6x,692638df063c96e069476515,693273301db3fa123bdd41ee,37,feedbackTrial, ,,,,,,,,,,,,,,,,,
                    <div style="text-align:center;">
                        <p style="color:green; font-size:24px;">Correct!</p><p>You now have 4 points.</p>
                        <p> Press any key to continue. </p>
                    </div>
                    
,,html-keyboard-response,25,2.0.0,342387,awbqx0cg6x,692638df063c96e069476515,693273301db3fa123bdd41ee,37,socialPredictionGame,,,,{"R":10,"P":5,"S":3,"T":5},3,5,10,5,SH,Purple,def,D.T.,opt_inv,def,7,1,4118.799999999814,
,652,html-keyboard-response,26,2.0.0,343044,awbqx0cg6x,692638df063c96e069476515,693273301db3fa123bdd41ee,37,feedbackTrial, ,,,,,,,,,,,,,,,,,
                    <div style="text-align:center;">
                        <p style="color:green; font-size:24px;">Correct!</p><p>You now have 5 points.</p>
                        <p> Press any key to continue. </p>
                    </div>
                    
,,html-keyboard-response,27,2.0.0,346743,awbqx0cg6x,692638df063c96e069476515,693273301db3fa123bdd41ee,37,socialPredictionGame,,,,{"R":10,"P":5,"S":10,"T":8},10,8,10,5,HG,Blue,coop,D.T.,opt_inv,def,9,0,3689.7000000001863,
,1088,html-keyboard-response,28,2.0.0,347835,awbqx0cg6x,692638df063c96e069476515,693273301db3fa123bdd41ee,37,feedbackTrial, ,,,,,,,,,,,,,,,,,
                    <div style="text-align:center;">
                        <p style="color:red; font-size:24px;">Incorrect</p><p>You still have 5 points.</p>
                        <p> Press any key to continue. </p>
                    </div>
                    
,,html-keyboard-response,29,2.0.0,353705,awbqx0cg6x,692638df063c96e069476515,693273301db3fa123bdd41ee,37,socialPredictionGame,,,,{"R":10,"P":5,"S":0,"T":15},0,15,10,5,PD,Blue,coop,D.T.,opt_inv,coop,3,1,5859.9000000003725,
,687,html-keyboard-response,30,2.0.0,354395,awbqx0cg6x,692638df063c96e069476515,693273301db3fa123bdd41ee,37,feedbackTrial, ,,,,,,,,,,,,,,,,,
                    <div style="text-align:center;">
                        <p style="color:green; font-size:24px;">Correct!</p><p>You now have 6 points.</p>
                        <p> Press any key to continue. </p>
                    </div>
                    
,,html-keyboard-response,31,2.0.0,357575,awbqx0cg6x,692638df063c96e069476515,693273301db3fa123bdd41ee,37,socialPredictionGame,,,,{"R":10,"P":5,"S":3,"T":12},3,12,10,5,PD,Purple,def,D.T.,opt_inv,coop,3,0,3170.2999999998137,
,920,html-keyboard-response,32,2.0.0,358500,awbqx0cg6x,692638df063c96e069476515,693273301db3fa123bdd41ee,37,feedbackTrial, ,,,,,,,,,,,,,,,,,
                    <div style="text-align:center;">
                        <p style="color:red; font-size:24px;">Incorrect</p><p>You still have 6 points.</p>
                        <p> Press any key to continue. </p>
                    </div>
                    
,,html-keyboard-response,33,2.0.0,362243,awbqx0cg6x,692638df063c96e069476515,693273301db3fa123bdd41ee,37,socialPredictionGame,,,,{"R":10,"P":5,"S":10,"T":5},10,5,10,5,HG,Purple,def,D.T.,opt_inv,def,3,1,3733.7999999998137,
,580,html-keyboard-response,34,2.0.0,362827,awbqx0cg6x,692638df063c96e069476515,693273301db3fa123bdd41ee,37,feedbackTrial, ,,,,,,,,,,,,,,,,,
                    <div style="text-align:center;">
                        <p style="color:green; font-size:24px;">Correct!</p><p>You now have 7 points.</p>
                        <p> Press any key to continue. </p>
                    </div>
                    
,,html-keyboard-response,35,2.0.0,365918,awbqx0cg6x,692638df063c96e069476515,693273301db3fa123bdd41ee,37,socialPredictionGame,,,,{"R":10,"P":5,"S":10,"T":15},10,15,10,5,SG,Blue,coop,D.T.,opt_inv,coop,3,1,3080.5,
,570,html-keyboard-response,36,2.0.0,366491,awbqx0cg6x,692638df063c96e069476515,693273301db3fa123bdd41ee,37,feedbackTrial, ,,,,,,,,,,,,,,,,,
                    <div style="text-align:center;">
                        <p style="color:green; font-size:24px;">Correct!</p><p>You now have 8 points.</p>
                        <p> Press any key to continue. </p>
                    </div>
                    
,,html-keyboard-response,37,2.0.0,369685,awbqx0cg6x,692638df063c96e069476515,693273301db3fa123bdd41ee,37,socialPredictionGame,,,,{"R":10,"P":5,"S":3,"T":15},3,15,10,5,PD,Purple,def,D.T.,opt_inv,coop,5,0,3184,
,578,html-keyboard-response,38,2.0.0,370268,awbqx0cg6x,692638df063c96e069476515,693273301db3fa123bdd41ee,37,feedbackTrial, ,,,,,,,,,,,,,,,,,
                    <div style="text-align:center;">
                        <p style="color:red; font-size:24px;">Incorrect</p><p>You still have 8 points.</p>
                        <p> Press any key to continue. </p>
                    </div>
                    
,,html-keyboard-response,39,2.0.0,373276,awbqx0cg6x,692638df063c96e069476515,693273301db3fa123bdd41ee,37,socialPredictionGame,,,,{"R":10,"P":5,"S":7,"T":8},7,8,10,5,HG,Purple,def,D.T.,opt_inv,def,4,1,2998.2000000001863,
,610,html-keyboard-response,40,2.0.0,373889,awbqx0cg6x,692638df063c96e069476515,693273301db3fa123bdd41ee,37,feedbackTrial, ,,,,,,,,,,,,,,,,,
                    <div style="text-align:center;">
                        <p style="color:green; font-size:24px;">Correct!</p><p>You now have 9 points.</p>
                        <p> Press any key to continue. </p>
                    </div>
                    
,,html-keyboard-response,41,2.0.0,376330,awbqx0cg6x,692638df063c96e069476515,693273301db3fa123bdd41ee,37,socialPredictionGame,,,,{"R":10,"P":5,"S":3,"T":8},3,8,10,5,SH,Blue,coop,D.T.,opt_inv,def,4,0,2438.7000000001863,
,711,html-keyboard-response,42,2.0.0,377044,awbqx0cg6x,692638df063c96e069476515,693273301db3fa123bdd41ee,37,feedbackTrial, ,,,,,,,,,,,,,,,,,
                    <div style="text-align:center;">
                        <p style="color:red; font-size:24px;">Incorrect</p><p>You still have 9 points.</p>
                        <p> Press any key to continue. </p>
                    </div>
                    
,34429,survey-html-form,43,2.1.0,411480,awbqx0cg6x,692638df063c96e069476515,693273301db3fa123bdd41ee,37,strategyPrediction,{"strategyPrediction":"DT had a strategy that was mostly switching blue and purple each time, but then switching that up occassionally. "},,,,,,,,,,,,,,,,,
[{"page_index":0,"viewing_time":6402}],6402,instructions,44,2.1.0,417885,awbqx0cg6x,692638df063c96e069476515,693273301db3fa123bdd41ee,37,,,,,,,,,,,,,,,,,,,
,,html-keyboard-response,45,2.0.0,421311,awbqx0cg6x,692638df063c96e069476515,693273301db3fa123bdd41ee,37,socialPredictionGame,,,,{"R":10,"P":5,"S":3,"T":12},3,12,10,5,PD,Red,coop,G.P.,pess_nat,def,3,0,3422.5999999996275,
,1986,html-keyboard-response,46,2.0.0,423301,awbqx0cg6x,692638df063c96e069476515,693273301db3fa123bdd41ee,37,feedbackTrial, ,,,,,,,,,,,,,,,,,
                    <div style="text-align:center;">
                        <p style="color:red; font-size:24px;">Incorrect</p><p>You still have 9 points.</p>
                        <p> Press any key to continue. </p>
                    </div>
                    
,,html-keyboard-response,47,2.0.0,428777,awbqx0cg6x,692638df063c96e069476515,693273301db3fa123bdd41ee,37,socialPredictionGame,,,,{"R":10,"P":5,"S":7,"T":5},7,5,10,5,HG,Purple,def,G.P.,pess_nat,coop,3,0,5465.799999999814,
,928,html-keyboard-response,48,2.0.0,429709,awbqx0cg6x,692638df063c96e069476515,693273301db3fa123bdd41ee,37,feedbackTrial, ,,,,,,,,,,,,,,,,,
                    <div style="text-align:center;">
                        <p style="color:red; font-size:24px;">Incorrect</p><p>You still have 9 points.</p>
                        <p> Press any key to continue. </p>
                    </div>
                    
,,html-keyboard-response,49,2.0.0,433911,awbqx0cg6x,692638df063c96e069476515,693273301db3fa123bdd41ee,37,socialPredictionGame,,,,{"R":10,"P":5,"S":10,"T":5},10,5,10,5,HG,Purple,def,G.P.,pess_nat,coop,2,0,4192.5999999996275,
,682,html-keyboard-response,50,2.0.0,434596,awbqx0cg6x,692638df063c96e069476515,693273301db3fa123bdd41ee,37,feedbackTrial, ,,,,,,,,,,,,,,,,,
                    <div style="text-align:center;">
                        <p style="color:red; font-size:24px;">Incorrect</p><p>You still have 9 points.</p>
                        <p> Press any key to continue. </p>
                    </div>
                    
,,html-keyboard-response,51,2.0.0,438532,awbqx0cg6x,692638df063c96e069476515,693273301db3fa123bdd41ee,37,socialPredictionGame,,,,{"R":10,"P":5,"S":0,"T":15},0,15,10,5,PD,Red,coop,G.P.,pess_nat,def,2,0,3925.600000000559,
,599,html-keyboard-response,52,2.0.0,439135,awbqx0cg6x,692638df063c96e069476515,693273301db3fa123bdd41ee,37,feedbackTrial, ,,,,,,,,,,,,,,,,,
                    <div style="text-align:center;">
                        <p style="color:red; font-size:24px;">Incorrect</p><p>You still have 9 points.</p>
                        <p> Press any key to continue. </p>
                    </div>
                    
,,html-keyboard-response,53,2.0.0,442316,awbqx0cg6x,692638df063c96e069476515,693273301db3fa123bdd41ee,37,socialPredictionGame,,,,{"R":10,"P":5,"S":0,"T":12},0,12,10,5,PD,Red,coop,G.P.,pess_nat,def,2,0,3171.5999999996275,
,613,html-keyboard-response,54,2.0.0,442933,awbqx0cg6x,692638df063c96e069476515,693273301db3fa123bdd41ee,37,feedbackTrial, ,,,,,,,,,,,,,,,,,
                    <div style="text-align:center;">
                        <p style="color:red; font-size:24px;">Incorrect</p><p>You still have 9 points.</p>
                        <p> Press any key to continue. </p>
                    </div>
                    
,,html-keyboard-response,55,2.0.0,445656,awbqx0cg6x,692638df063c96e069476515,693273301db3fa123bdd41ee,37,socialPredictionGame,,,,{"R":10,"P":5,"S":10,"T":8},10,8,10,5,HG,Red,coop,G.P.,pess_nat,coop,2,1,2715.9000000003725,
,851,html-keyboard-response,56,2.0.0,446510,awbqx0cg6x,692638df063c96e069476515,693273301db3fa123bdd41ee,37,feedbackTrial, ,,,,,,,,,,,,,,,,,
                    <div style="text-align:center;">
                        <p style="color:green; font-size:24px;">Correct!</p><p>You now have 10 points.</p>
                        <p> Press any key to continue. </p>
                    </div>
                    
,,html-keyboard-response,57,2.0.0,451821,awbqx0cg6x,692638df063c96e069476515,693273301db3fa123bdd41ee,37,socialPredictionGame,,,,{"R":10,"P":5,"S":0,"T":8},0,8,10,5,SH,Purple,def,G.P.,pess_nat,def,3,1,5301,
,1101,html-keyboard-response,58,2.0.0,452925,awbqx0cg6x,692638df063c96e069476515,693273301db3fa123bdd41ee,37,feedbackTrial, ,,,,,,,,,,,,,,,,,
                    <div style="text-align:center;">
                        <p style="color:green; font-size:24px;">Correct!</p><p>You now have 11 points.</p>
                        <p> Press any key to continue. </p>
                    </div>
                    
,,html-keyboard-response,59,2.0.0,456345,awbqx0cg6x,692638df063c96e069476515,693273301db3fa123bdd41ee,37,socialPredictionGame,,,,{"R":10,"P":5,"S":7,"T":15},7,15,10,5,SG,Purple,def,G.P.,pess_nat,coop,4,0,3409.2999999998137,
,713,html-keyboard-response,60,2.0.0,457062,awbqx0cg6x,692638df063c96e069476515,693273301db3fa123bdd41ee,37,feedbackTrial, ,,,,,,,,,,,,,,,,,
                    <div style="text-align:center;">
                        <p style="color:red; font-size:24px;">Incorrect</p><p>You still have 11 points.</p>
                        <p> Press any key to continue. </p>
                    </div>
                    
,,html-keyboard-response,61,2.0.0,459379,awbqx0cg6x,692638df063c96e069476515,693273301db3fa123bdd41ee,37,socialPredictionGame,,,,{"R":10,"P":5,"S":3,"T":8},3,8,10,5,SH,Purple,def,G.P.,pess_nat,def,3,1,2306.7000000001863,
,632,html-keyboard-response,62,2.0.0,460014,awbqx0cg6x,692638df063c96e069476515,693273301db3fa123bdd41ee,37,feedbackTrial, ,,,,,,,,,,,,,,,,,
                    <div style="text-align:center;">
                        <p style="color:green; font-size:24px;">Correct!</p><p>You now have 12 points.</p>
                        <p> Press any key to continue. </p>
                    </div>
                    
,,html-keyboard-response,63,2.0.0,465093,awbqx0cg6x,692638df063c96e069476515,693273301db3fa123bdd41ee,37,socialPredictionGame,,,,{"R":10,"P":5,"S":0,"T":5},0,5,10,5,SH,Purple,def,G.P.,pess_nat,def,4,1,5068.0999999996275,
,709,html-keyboard-response,64,2.0.0,465806,awbqx0cg6x,692638df063c96e069476515,693273301db3fa123bdd41ee,37,feedbackTrial, ,,,,,,,,,,,,,,,,,
                    <div style="text-align:center;">
                        <p style="color:green; font-size:24px;">Correct!</p><p>You now have 13 points.</p>
                        <p> Press any key to continue. </p>
                    </div>
                    
,,html-keyboard-response,65,2.0.0,469101,awbqx0cg6x,692638df063c96e069476515,693273301db3fa123bdd41ee,37,socialPredictionGame,,,,{"R":10,"P":5,"S":7,"T":12},7,12,10,5,SG,Red,coop,G.P.,pess_nat,coop,3,1,3284.399999999441,
,670,html-keyboard-response,66,2.0.0,469775,awbqx0cg6x,692638df063c96e069476515,693273301db3fa123bdd41ee,37,feedbackTrial, ,,,,,,,,,,,,,,,,,
                    <div style="text-align:center;">
                        <p style="color:green; font-size:24px;">Correct!</p><p>You now have 14 points.</p>
                        <p> Press any key to continue. </p>
                    </div>
                    
,,html-keyboard-response,67,2.0.0,472875,awbqx0cg6x,692638df063c96e069476515,693273301db3fa123bdd41ee,37,socialPredictionGame,,,,{"R":10,"P":5,"S":3,"T":15},3,15,10,5,PD,Purple,def,G.P.,pess_nat,def,6,1,3090,
,736,html-keyboard-response,68,2.0.0,473614,awbqx0cg6x,692638df063c96e069476515,693273301db3fa123bdd41ee,37,feedbackTrial, ,,,,,,,,,,,,,,,,,
                    <div style="text-align:center;">
                        <p style="color:green; font-size:24px;">Correct!</p><p>You now have 15 points.</p>
                        <p> Press any key to continue. </p>
                    </div>
                    
,,html-keyboard-response,69,2.0.0,477319,awbqx0cg6x,692638df063c96e069476515,693273301db3fa123bdd41ee,37,socialPredictionGame,,,,{"R":10,"P":5,"S":10,"T":15},10,15,10,5,SG,Red,coop,G.P.,pess_nat,coop,5,1,3694.2999999998137,
,700,html-keyboard-response,70,2.0.0,478023,awbqx0cg6x,692638df063c96e069476515,693273301db3fa123bdd41ee,37,feedbackTrial, ,,,,,,,,,,,,,,,,,
                    <div style="text-align:center;">
                        <p style="color:green; font-size:24px;">Correct!</p><p>You now have 16 points.</p>
                        <p> Press any key to continue. </p>
                    </div>
                    
,,html-keyboard-response,71,2.0.0,481798,awbqx0cg6x,692638df063c96e069476515,693273301db3fa123bdd41ee,37,socialPredictionGame,,,,{"R":10,"P":5,"S":10,"T":12},10,12,10,5,SG,Purple,def,G.P.,pess_nat,coop,7,0,3765.399999999441,
,717,html-keyboard-response,72,2.0.0,482519,awbqx0cg6x,692638df063c96e069476515,693273301db3fa123bdd41ee,37,feedbackTrial, ,,,,,,,,,,,,,,,,,
                    <div style="text-align:center;">
                        <p style="color:red; font-size:24px;">Incorrect</p><p>You still have 16 points.</p>
                        <p> Press any key to continue. </p>
                    </div>
                    
,,html-keyboard-response,73,2.0.0,485389,awbqx0cg6x,692638df063c96e069476515,693273301db3fa123bdd41ee,37,socialPredictionGame,,,,{"R":10,"P":5,"S":3,"T":5},3,5,10,5,SH,Purple,def,G.P.,pess_nat,def,9,1,2860.2999999998137,
,1110,html-keyboard-response,74,2.0.0,486503,awbqx0cg6x,692638df063c96e069476515,693273301db3fa123bdd41ee,37,feedbackTrial, ,,,,,,,,,,,,,,,,,
                    <div style="text-align:center;">
                        <p style="color:green; font-size:24px;">Correct!</p><p>You now have 17 points.</p>
                        <p> Press any key to continue. </p>
                    </div>
                    
,,html-keyboard-response,75,2.0.0,489699,awbqx0cg6x,692638df063c96e069476515,693273301db3fa123bdd41ee,37,socialPredictionGame,,,,{"R":10,"P":5,"S":7,"T":8},7,8,10,5,HG,Red,coop,G.P.,pess_nat,coop,2,1,3185.5,
,624,html-keyboard-response,76,2.0.0,490326,awbqx0cg6x,692638df063c96e069476515,693273301db3fa123bdd41ee,37,feedbackTrial, ,,,,,,,,,,,,,,,,,
                    <div style="text-align:center;">
                        <p style="color:green; font-size:24px;">Correct!</p><p>You now have 18 points.</p>
                        <p> Press any key to continue. </p>
                    </div>
                    
,37192,survey-html-form,77,2.1.0,527522,awbqx0cg6x,692638df063c96e069476515,693273301db3fa123bdd41ee,37,strategyPrediction,{"strategyPrediction":"GP tried to go for purple as much as possible but threw in a couple reds to balance it out and try to fool the other player."},,,,,,,,,,,,,,,,,
[{"page_index":0,"viewing_time":1785}],1785,instructions,78,2.1.0,529310,awbqx0cg6x,692638df063c96e069476515,693273301db3fa123bdd41ee,37,,,,,,,,,,,,,,,,,,,
,,html-keyboard-response,79,2.0.0,533845,awbqx0cg6x,692638df063c96e069476515,693273301db3fa123bdd41ee,37,socialPredictionGame,,,,{"R":10,"P":5,"S":10,"T":12},10,12,10,5,SG,Blue,coop,F.A.,opt_nat,def,3,0,4531.200000000186,
,1568,html-keyboard-response,80,2.0.0,535417,awbqx0cg6x,692638df063c96e069476515,693273301db3fa123bdd41ee,37,feedbackTrial, ,,,,,,,,,,,,,,,,,
                    <div style="text-align:center;">
                        <p style="color:red; font-size:24px;">Incorrect</p><p>You still have 18 points.</p>
                        <p> Press any key to continue. </p>
                    </div>
                    
,,html-keyboard-response,81,2.0.0,537502,awbqx0cg6x,692638df063c96e069476515,693273301db3fa123bdd41ee,37,socialPredictionGame,,,,{"R":10,"P":5,"S":0,"T":15},0,15,10,5,PD,Blue,coop,F.A.,opt_nat,def,4,0,2076.2999999998137,
,831,html-keyboard-response,82,2.0.0,538337,awbqx0cg6x,692638df063c96e069476515,693273301db3fa123bdd41ee,37,feedbackTrial, ,,,,,,,,,,,,,,,,,
                    <div style="text-align:center;">
                        <p style="color:red; font-size:24px;">Incorrect</p><p>You still have 18 points.</p>
                        <p> Press any key to continue. </p>
                    </div>
                    
,,html-keyboard-response,83,2.0.0,541456,awbqx0cg6x,692638df063c96e069476515,693273301db3fa123bdd41ee,37,socialPredictionGame,,,,{"R":10,"P":5,"S":7,"T":8},7,8,10,5,HG,Green,def,F.A.,opt_nat,coop,3,0,3109.199999999255,
,1173,html-keyboard-response,84,2.0.0,542633,awbqx0cg6x,692638df063c96e069476515,693273301db3fa123bdd41ee,37,feedbackTrial, ,,,,,,,,,,,,,,,,,
                    <div style="text-align:center;">
                        <p style="color:red; font-size:24px;">Incorrect</p><p>You still have 18 points.</p>
                        <p> Press any key to continue. </p>
                    </div>
                    
,,html-keyboard-response,85,2.0.0,545255,awbqx0cg6x,692638df063c96e069476515,693273301db3fa123bdd41ee,37,socialPredictionGame,,,,{"R":10,"P":5,"S":3,"T":12},3,12,10,5,PD,Green,def,F.A.,opt_nat,def,5,1,2612.2000000001863,
,742,html-keyboard-response,86,2.0.0,546001,awbqx0cg6x,692638df063c96e069476515,693273301db3fa123bdd41ee,37,feedbackTrial, ,,,,,,,,,,,,,,,,,
                    <div style="text-align:center;">
                        <p style="color:green; font-size:24px;">Correct!</p><p>You now have 19 points.</p>
                        <p> Press any key to continue. </p>
                    </div>
                    
,,html-keyboard-response,87,2.0.0,548527,awbqx0cg6x,692638df063c96e069476515,693273301db3fa123bdd41ee,37,socialPredictionGame,,,,{"R":10,"P":5,"S":10,"T":8},10,8,10,5,HG,Blue,coop,F.A.,opt_nat,coop,5,1,2516.5,
,718,html-keyboard-response,88,2.0.0,549249,awbqx0cg6x,692638df063c96e069476515,693273301db3fa123bdd41ee,37,feedbackTrial, ,,,,,,,,,,,,,,,,,
                    <div style="text-align:center;">
                        <p style="color:green; font-size:24px;">Correct!</p><p>You now have 20 points.</p>
                        <p> Press any key to continue. </p>
                    </div>
                    
,,html-keyboard-response,89,2.0.0,552792,awbqx0cg6x,692638df063c96e069476515,693273301db3fa123bdd41ee,37,socialPredictionGame,,,,{"R":10,"P":5,"S":10,"T":15},10,15,10,5,SG,Green,def,F.A.,opt_nat,def,7,1,3533.2999999998137,
,579,html-keyboard-response,90,2.0.0,553373,awbqx0cg6x,692638df063c96e069476515,693273301db3fa123bdd41ee,37,feedbackTrial, ,,,,,,,,,,,,,,,,,
                    <div style="text-align:center;">
                        <p style="color:green; font-size:24px;">Correct!</p><p>You now have 21 points.</p>
                        <p> Press any key to continue. </p>
                    </div>
                    
,,html-keyboard-response,91,2.0.0,556932,awbqx0cg6x,692638df063c96e069476515,693273301db3fa123bdd41ee,37,socialPredictionGame,,,,{"R":10,"P":5,"S":3,"T":8},3,8,10,5,SH,Green,def,F.A.,opt_nat,coop,8,0,3556.300000000745,
,684,html-keyboard-response,92,2.0.0,557620,awbqx0cg6x,692638df063c96e069476515,693273301db3fa123bdd41ee,37,feedbackTrial, ,,,,,,,,,,,,,,,,,
                    <div style="text-align:center;">
                        <p style="color:red; font-size:24px;">Incorrect</p><p>You still have 21 points.</p>
                        <p> Press any key to continue. </p>
                    </div>
                    
,,html-keyboard-response,93,2.0.0,560132,awbqx0cg6x,692638df063c96e069476515,693273301db3fa123bdd41ee,37,socialPredictionGame,,,,{"R":10,"P":5,"S":0,"T":5},0,5,10,5,SH,Green,def,F.A.,opt_nat,coop,6,0,2508.9000000003725,
,722,html-keyboard-response,94,2.0.0,560857,awbqx0cg6x,692638df063c96e069476515,693273301db3fa123bdd41ee,37,feedbackTrial, ,,,,,,,,,,,,,,,,,
                    <div style="text-align:center;">
                        <p style="color:red; font-size:24px;">Incorrect</p><p>You still have 21 points.</p>
                        <p> Press any key to continue. </p>
                    </div>
                    
,,html-keyboard-response,95,2.0.0,563179,awbqx0cg6x,692638df063c96e069476515,693273301db3fa123bdd41ee,37,socialPredictionGame,,,,{"R":10,"P":5,"S":10,"T":5},10,5,10,5,HG,Green,def,F.A.,opt_nat,coop,9,0,2311.5,
,811,html-keyboard-response,96,2.0.0,563994,awbqx0cg6x,692638df063c96e069476515,693273301db3fa123bdd41ee,37,feedbackTrial, ,,,,,,,,,,,,,,,,,
                    <div style="text-align:center;">
                        <p style="color:red; font-size:24px;">Incorrect</p><p>You still have 21 points.</p>
                        <p> Press any key to continue. </p>
                    </div>
                    
,,html-keyboard-response,97,2.0.0,567396,awbqx0cg6x,692638df063c96e069476515,693273301db3fa123bdd41ee,37,socialPredictionGame,,,,{"R":10,"P":5,"S":3,"T":15},3,15,10,5,PD,Green,def,F.A.,opt_nat,def,6,1,3391.7000000001863,
,778,html-keyboard-response,98,2.0.0,568178,awbqx0cg6x,692638df063c96e069476515,693273301db3fa123bdd41ee,37,feedbackTrial, ,,,,,,,,,,,,,,,,,
                    <div style="text-align:center;">
                        <p style="color:green; font-size:24px;">Correct!</p><p>You now have 22 points.</p>
                        <p> Press any key to continue. </p>
                    </div>
                    
,,html-keyboard-response,99,2.0.0,571504,awbqx0cg6x,692638df063c96e069476515,693273301db3fa123bdd41ee,37,socialPredictionGame,,,,{"R":10,"P":5,"S":0,"T":8},0,8,10,5,SH,Blue,coop,F.A.,opt_nat,coop,4,1,3315.2999999998137,
,694,html-keyboard-response,100,2.0.0,572201,awbqx0cg6x,692638df063c96e069476515,693273301db3fa123bdd41ee,37,feedbackTrial, ,,,,,,,,,,,,,,,,,
                    <div style="text-align:center;">
                        <p style="color:green; font-size:24px;">Correct!</p><p>You now have 23 points.</p>
                        <p> Press any key to continue. </p>
                    </div>
                    
,,html-keyboard-response,101,2.0.0,574884,awbqx0cg6x,692638df063c96e069476515,693273301db3fa123bdd41ee,37,socialPredictionGame,,,,{"R":10,"P":5,"S":7,"T":15},7,15,10,5,SG,Green,def,F.A.,opt_nat,def,7,1,2675.9000000003725,
,689,html-keyboard-response,102,2.0.0,575577,awbqx0cg6x,692638df063c96e069476515,693273301db3fa123bdd41ee,37,feedbackTrial, ,,,,,,,,,,,,,,,,,
                    <div style="text-align:center;">
                        <p style="color:green; font-size:24px;">Correct!</p><p>You now have 24 points.</p>
                        <p> Press any key to continue. </p>
                    </div>
                    
,,html-keyboard-response,103,2.0.0,578458,awbqx0cg6x,692638df063c96e069476515,693273301db3fa123bdd41ee,37,socialPredictionGame,,,,{"R":10,"P":5,"S":3,"T":5},3,5,10,5,SH,Blue,coop,F.A.,opt_nat,coop,5,1,2870.899999999441,
,644,html-keyboard-response,104,2.0.0,579106,awbqx0cg6x,692638df063c96e069476515,693273301db3fa123bdd41ee,37,feedbackTrial, ,,,,,,,,,,,,,,,,,
                    <div style="text-align:center;">
                        <p style="color:green; font-size:24px;">Correct!</p><p>You now have 25 points.</p>
                        <p> Press any key to continue. </p>
                    </div>
                    
,,html-keyboard-response,105,2.0.0,582126,awbqx0cg6x,692638df063c96e069476515,693273301db3fa123bdd41ee,37,socialPredictionGame,,,,{"R":10,"P":5,"S":0,"T":12},0,12,10,5,PD,Green,def,F.A.,opt_nat,def,6,1,3008.9000000003725,
,615,html-keyboard-response,106,2.0.0,582746,awbqx0cg6x,692638df063c96e069476515,693273301db3fa123bdd41ee,37,feedbackTrial, ,,,,,,,,,,,,,,,,,
                    <div style="text-align:center;">
                        <p style="color:green; font-size:24px;">Correct!</p><p>You now have 26 points.</p>
                        <p> Press any key to continue. </p>
                    </div>
                    
,,html-keyboard-response,107,2.0.0,585946,awbqx0cg6x,692638df063c96e069476515,693273301db3fa123bdd41ee,37,socialPredictionGame,,,,{"R":10,"P":5,"S":7,"T":12},7,12,10,5,SG,Blue,coop,F.A.,opt_nat,def,5,0,3190.0999999996275,
,636,html-keyboard-response,108,2.0.0,586586,awbqx0cg6x,692638df063c96e069476515,693273301db3fa123bdd41ee,37,feedbackTrial, ,,,,,,,,,,,,,,,,,
                    <div style="text-align:center;">
                        <p style="color:red; font-size:24px;">Incorrect</p><p>You still have 26 points.</p>
                        <p> Press any key to continue. </p>
                    </div>
                    
,,html-keyboard-response,109,2.0.0,590313,awbqx0cg6x,692638df063c96e069476515,693273301db3fa123bdd41ee,37,socialPredictionGame,,,,{"R":10,"P":5,"S":7,"T":5},7,5,10,5,HG,Green,def,F.A.,opt_nat,coop,7,0,3716.5999999996275,
,574,html-keyboard-response,110,2.0.0,590890,awbqx0cg6x,692638df063c96e069476515,693273301db3fa123bdd41ee,37,feedbackTrial, ,,,,,,,,,,,,,,,,,
                    <div style="text-align:center;">
                        <p style="color:red; font-size:24px;">Incorrect</p><p>You still have 26 points.</p>
                        <p> Press any key to continue. </p>
                    </div>
                    
,44763,survey-html-form,111,2.1.0,635659,awbqx0cg6x,692638df063c96e069476515,693273301db3fa123bdd41ee,37,strategyPrediction,{"strategyPrediction":"FA had a strategy of going for both colors, but tried to get the most points by choosing that color a bit more often."},,,,,,,,,,,,,,,,,
[{"page_index":0,"viewing_time":5487}],5487,instructions,112,2.1.0,641148,awbqx0cg6x,692638df063c96e069476515,693273301db3fa123bdd41ee,37,,,,,,,,,,,,,,,,,,,
,,html-keyboard-response,113,2.0.0,645086,awbqx0cg6x,692638df063c96e069476515,693273301db3fa123bdd41ee,37,socialPredictionGame,,,,{"R":10,"P":5,"S":7,"T":8},7,8,10,5,HG,Red,coop,E.B.,pess_inv,def,3,0,3934.7000000001863,
,1492,html-keyboard-response,114,2.0.0,646581,awbqx0cg6x,692638df063c96e069476515,693273301db3fa123bdd41ee,37,feedbackTrial, ,,,,,,,,,,,,,,,,,
                    <div style="text-align:center;">
                        <p style="color:red; font-size:24px;">Incorrect</p><p>You still have 26 points.</p>
                        <p> Press any key to continue. </p>
                    </div>
                    
,,html-keyboard-response,115,2.0.0,649218,awbqx0cg6x,692638df063c96e069476515,693273301db3fa123bdd41ee,37,socialPredictionGame,,,,{"R":10,"P":5,"S":3,"T":12},3,12,10,5,PD,Red,coop,E.B.,pess_inv,coop,4,1,2626.9000000003725,
,886,html-keyboard-response,116,2.0.0,650108,awbqx0cg6x,692638df063c96e069476515,693273301db3fa123bdd41ee,37,feedbackTrial, ,,,,,,,,,,,,,,,,,
                    <div style="text-align:center;">
                        <p style="color:green; font-size:24px;">Correct!</p><p>You now have 27 points.</p>
                        <p> Press any key to continue. </p>
                    </div>
                    
,,html-keyboard-response,117,2.0.0,652504,awbqx0cg6x,692638df063c96e069476515,693273301db3fa123bdd41ee,37,socialPredictionGame,,,,{"R":10,"P":5,"S":7,"T":5},7,5,10,5,HG,Blue,def,E.B.,pess_inv,def,6,1,2385.7999999998137,
,1121,html-keyboard-response,118,2.0.0,653628,awbqx0cg6x,692638df063c96e069476515,693273301db3fa123bdd41ee,37,feedbackTrial, ,,,,,,,,,,,,,,,,,
                    <div style="text-align:center;">
                        <p style="color:green; font-size:24px;">Correct!</p><p>You now have 28 points.</p>
                        <p> Press any key to continue. </p>
                    </div>
                    
,,html-keyboard-response,119,2.0.0,657675,awbqx0cg6x,692638df063c96e069476515,693273301db3fa123bdd41ee,37,socialPredictionGame,,,,{"R":10,"P":5,"S":10,"T":12},10,12,10,5,SG,Blue,def,E.B.,pess_inv,def,5,1,4035.9000000003725,
,639,html-keyboard-response,120,2.0.0,658316,awbqx0cg6x,692638df063c96e069476515,693273301db3fa123bdd41ee,37,feedbackTrial, ,,,,,,,,,,,,,,,,,
                    <div style="text-align:center;">
                        <p style="color:green; font-size:24px;">Correct!</p><p>You now have 29 points.</p>
                        <p> Press any key to continue. </p>
                    </div>
                    
,,html-keyboard-response,121,2.0.0,663520,awbqx0cg6x,692638df063c96e069476515,693273301db3fa123bdd41ee,37,socialPredictionGame,,,,{"R":10,"P":5,"S":0,"T":12},0,12,10,5,PD,Red,coop,E.B.,pess_inv,coop,9,1,5192.5,
,816,html-keyboard-response,122,2.0.0,664338,awbqx0cg6x,692638df063c96e069476515,693273301db3fa123bdd41ee,37,feedbackTrial, ,,,,,,,,,,,,,,,,,
                    <div style="text-align:center;">
                        <p style="color:green; font-size:24px;">Correct!</p><p>You now have 30 points.</p>
                        <p> Press any key to continue. </p>
                    </div>
                    
,,html-keyboard-response,123,2.0.0,668829,awbqx0cg6x,692638df063c96e069476515,693273301db3fa123bdd41ee,37,socialPredictionGame,,,,{"R":10,"P":5,"S":10,"T":8},10,8,10,5,HG,Blue,def,E.B.,pess_inv,def,6,1,4483.700000000186,
,668,html-keyboard-response,124,2.0.0,669500,awbqx0cg6x,692638df063c96e069476515,693273301db3fa123bdd41ee,37,feedbackTrial, ,,,,,,,,,,,,,,,,,
                    <div style="text-align:center;">
                        <p style="color:green; font-size:24px;">Correct!</p><p>You now have 31 points.</p>
                        <p> Press any key to continue. </p>
                    </div>
                    
,,html-keyboard-response,125,2.0.0,671923,awbqx0cg6x,692638df063c96e069476515,693273301db3fa123bdd41ee,37,socialPredictionGame,,,,{"R":10,"P":5,"S":7,"T":15},7,15,10,5,SG,Blue,def,E.B.,pess_inv,def,7,1,2412,
,814,html-keyboard-response,126,2.0.0,672741,awbqx0cg6x,692638df063c96e069476515,693273301db3fa123bdd41ee,37,feedbackTrial, ,,,,,,,,,,,,,,,,,
                    <div style="text-align:center;">
                        <p style="color:green; font-size:24px;">Correct!</p><p>You now have 32 points.</p>
                        <p> Press any key to continue. </p>
                    </div>
                    
,,html-keyboard-response,127,2.0.0,676767,awbqx0cg6x,692638df063c96e069476515,693273301db3fa123bdd41ee,37,socialPredictionGame,,,,{"R":10,"P":5,"S":0,"T":5},0,5,10,5,SH,Red,coop,E.B.,pess_inv,coop,8,1,4015.7999999998137,
,562,html-keyboard-response,128,2.0.0,677332,awbqx0cg6x,692638df063c96e069476515,693273301db3fa123bdd41ee,37,feedbackTrial, ,,,,,,,,,,,,,,,,,
                    <div style="text-align:center;">
                        <p style="color:green; font-size:24px;">Correct!</p><p>You now have 33 points.</p>
                        <p> Press any key to continue. </p>
                    </div>
                    
,,html-keyboard-response,129,2.0.0,681217,awbqx0cg6x,692638df063c96e069476515,693273301db3fa123bdd41ee,37,socialPredictionGame,,,,{"R":10,"P":5,"S":3,"T":8},3,8,10,5,SH,Blue,def,E.B.,pess_inv,coop,9,0,3875.5999999996275,
,737,html-keyboard-response,130,2.0.0,681958,awbqx0cg6x,692638df063c96e069476515,693273301db3fa123bdd41ee,37,feedbackTrial, ,,,,,,,,,,,,,,,,,
                    <div style="text-align:center;">
                        <p style="color:red; font-size:24px;">Incorrect</p><p>You still have 33 points.</p>
                        <p> Press any key to continue. </p>
                    </div>
                    
,,html-keyboard-response,131,2.0.0,686196,awbqx0cg6x,692638df063c96e069476515,693273301db3fa123bdd41ee,37,socialPredictionGame,,,,{"R":10,"P":5,"S":7,"T":12},7,12,10,5,SG,Blue,def,E.B.,pess_inv,def,9,1,4226.9000000003725,
,582,html-keyboard-response,132,2.0.0,686781,awbqx0cg6x,692638df063c96e069476515,693273301db3fa123bdd41ee,37,feedbackTrial, ,,,,,,,,,,,,,,,,,
                    <div style="text-align:center;">
                        <p style="color:green; font-size:24px;">Correct!</p><p>You now have 34 points.</p>
                        <p> Press any key to continue. </p>
                    </div>
                    
,,html-keyboard-response,133,2.0.0,691023,awbqx0cg6x,692638df063c96e069476515,693273301db3fa123bdd41ee,37,socialPredictionGame,,,,{"R":10,"P":5,"S":3,"T":15},3,15,10,5,PD,Blue,def,E.B.,pess_inv,coop,6,0,4228.299999999814,
,577,html-keyboard-response,134,2.0.0,691605,awbqx0cg6x,692638df063c96e069476515,693273301db3fa123bdd41ee,37,feedbackTrial, ,,,,,,,,,,,,,,,,,
                    <div style="text-align:center;">
                        <p style="color:red; font-size:24px;">Incorrect</p><p>You still have 34 points.</p>
                        <p> Press any key to continue. </p>
                    </div>
                    
,,html-keyboard-response,135,2.0.0,693885,awbqx0cg6x,692638df063c96e069476515,693273301db3fa123bdd41ee,37,socialPredictionGame,,,,{"R":10,"P":5,"S":10,"T":5},10,5,10,5,HG,Blue,def,E.B.,pess_inv,def,9,1,2269.600000000559,
,1005,html-keyboard-response,136,2.0.0,694893,awbqx0cg6x,692638df063c96e069476515,693273301db3fa123bdd41ee,37,feedbackTrial, ,,,,,,,,,,,,,,,,,
                    <div style="text-align:center;">
                        <p style="color:green; font-size:24px;">Correct!</p><p>You now have 35 points.</p>
                        <p> Press any key to continue. </p>
                    </div>
                    
,,html-keyboard-response,137,2.0.0,699428,awbqx0cg6x,692638df063c96e069476515,693273301db3fa123bdd41ee,37,socialPredictionGame,,,,{"R":10,"P":5,"S":0,"T":15},0,15,10,5,PD,Red,coop,E.B.,pess_inv,coop,6,1,4523.800000000745,
,591,html-keyboard-response,138,2.0.0,700021,awbqx0cg6x,692638df063c96e069476515,693273301db3fa123bdd41ee,37,feedbackTrial, ,,,,,,,,,,,,,,,,,
                    <div style="text-align:center;">
                        <p style="color:green; font-size:24px;">Correct!</p><p>You now have 36 points.</p>
                        <p> Press any key to continue. </p>
                    </div>
                    
,,html-keyboard-response,139,2.0.0,702568,awbqx0cg6x,692638df063c96e069476515,693273301db3fa123bdd41ee,37,socialPredictionGame,,,,{"R":10,"P":5,"S":3,"T":5},3,5,10,5,SH,Blue,def,E.B.,pess_inv,coop,9,0,2543.2000000001863,
,650,html-keyboard-response,140,2.0.0,703222,awbqx0cg6x,692638df063c96e069476515,693273301db3fa123bdd41ee,37,feedbackTrial, ,,,,,,,,,,,,,,,,,
                    <div style="text-align:center;">
                        <p style="color:red; font-size:24px;">Incorrect</p><p>You still have 36 points.</p>
                        <p> Press any key to continue. </p>
                    </div>
                    
,,html-keyboard-response,141,2.0.0,705902,awbqx0cg6x,692638df063c96e069476515,693273301db3fa123bdd41ee,37,socialPredictionGame,,,,{"R":10,"P":5,"S":0,"T":8},0,8,10,5,SH,Blue,def,E.B.,pess_inv,coop,10,0,2670.2000000001863,
,780,html-keyboard-response,142,2.0.0,706686,awbqx0cg6x,692638df063c96e069476515,693273301db3fa123bdd41ee,37,feedbackTrial, ,,,,,,,,,,,,,,,,,
                    <div style="text-align:center;">
                        <p style="color:red; font-size:24px;">Incorrect</p><p>You still have 36 points.</p>
                        <p> Press any key to continue. </p>
                    </div>
                    
,,html-keyboard-response,143,2.0.0,709319,awbqx0cg6x,692638df063c96e069476515,693273301db3fa123bdd41ee,37,socialPredictionGame,,,,{"R":10,"P":5,"S":10,"T":15},10,15,10,5,SG,Blue,def,E.B.,pess_inv,def,9,1,2622.699999999255,
,761,html-keyboard-response,144,2.0.0,710083,awbqx0cg6x,692638df063c96e069476515,693273301db3fa123bdd41ee,37,feedbackTrial, ,,,,,,,,,,,,,,,,,
                    <div style="text-align:center;">
                        <p style="color:green; font-size:24px;">Correct!</p><p>You now have 37 points.</p>
                        <p> Press any key to continue. </p>
                    </div>
                    
,26805,survey-html-form,145,2.1.0,736890,awbqx0cg6x,692638df063c96e069476515,693273301db3fa123bdd41ee,37,strategyPrediction,{"strategyPrediction":"EB mostly went with blue to try and gain the most points, but occassionaly went with red to try and trick the other player. "},,,,,,,,,,,,,,,,,
,9224,survey-html-form,146,2.1.0,746119,awbqx0cg6x,692638df063c96e069476515,693273301db3fa123bdd41ee,37,demographics,{"age":"48","gender":"Male"},,,,,,,,,,,,,,,,,
,16354,survey-html-form,147,2.1.0,762477,awbqx0cg6x,692638df063c96e069476515,693273301db3fa123bdd41ee,37,technical,{"technical":"None","feedback":"Everything was perfectly clear!"},,,,,,,,,,,,,,,,,
