view_history,rt,trial_type,trial_index,plugin_version,time_elapsed,subjectID,studyID,sessionID,overallBonusPoints,task,response,question_order,success,Matrix,S,T,R,P,GameType,choice,GivenAns,Player,PlayerType,CorrAns,confidence,ScoreNum,time_on_trial,stimulus
[{"page_index":0,"viewing_time":15189},{"page_index":1,"viewing_time":38277}],53467,instructions,0,2.1.0,53482,aycrjgc94c,693e609928541f4126f49c4b,693eec4d67b2988724128f33,35,,,,,,,,,,,,,,,,,,,
[{"page_index":0,"viewing_time":20018}],20018,instructions,1,2.1.0,73502,aycrjgc94c,693e609928541f4126f49c4b,693eec4d67b2988724128f33,35,,,,,,,,,,,,,,,,,,,
[{"page_index":0,"viewing_time":5054}],5054,instructions,2,2.1.0,78558,aycrjgc94c,693e609928541f4126f49c4b,693eec4d67b2988724128f33,35,,,,,,,,,,,,,,,,,,,
,19150,survey-multi-choice,3,null,97713,aycrjgc94c,693e609928541f4126f49c4b,693eec4d67b2988724128f33,35,comprehensionCheck,{"task":"Choose a random option","incentive":"Yes—they received bonuses based on their performance"},[0,1],,,,,,,,,,,,,,,,
[{"page_index":0,"viewing_time":31749}],31749,instructions,4,2.1.0,133055,aycrjgc94c,693e609928541f4126f49c4b,693eec4d67b2988724128f33,35,,,,,,,,,,,,,,,,,,,
[{"page_index":0,"viewing_time":2145}],2145,instructions,5,2.1.0,135202,aycrjgc94c,693e609928541f4126f49c4b,693eec4d67b2988724128f33,35,,,,,,,,,,,,,,,,,,,
,40021,survey-multi-choice,6,null,175226,aycrjgc94c,693e609928541f4126f49c4b,693eec4d67b2988724128f33,35,comprehensionCheck,{"task":"Choose the option the anonymized participant chose","incentive":"Yes—they received bonuses based on their performance"},[0,1],,,,,,,,,,,,,,,,
,3271,fullscreen,7,2.1.0,179516,aycrjgc94c,693e609928541f4126f49c4b,693eec4d67b2988724128f33,35,,,,true,,,,,,,,,,,,,,,
[{"page_index":0,"viewing_time":5470}],5470,instructions,8,2.1.0,184989,aycrjgc94c,693e609928541f4126f49c4b,693eec4d67b2988724128f33,35,,,,,,,,,,,,,,,,,,,
,,html-keyboard-response,9,2.0.0,198483,aycrjgc94c,693e609928541f4126f49c4b,693eec4d67b2988724128f33,35,playOwnGame,,,,{"R":10,"P":5,"S":7,"T":12},7,12,10,5,SG,Blue,coop,,,,,,,
,,html-keyboard-response,10,2.0.0,205209,aycrjgc94c,693e609928541f4126f49c4b,693eec4d67b2988724128f33,35,playOwnGame,,,,{"R":10,"P":5,"S":0,"T":12},0,12,10,5,PD,Purple,def,,,,,,,
,,html-keyboard-response,11,2.0.0,210215,aycrjgc94c,693e609928541f4126f49c4b,693eec4d67b2988724128f33,35,playOwnGame,,,,{"R":10,"P":5,"S":10,"T":8},10,8,10,5,HG,Blue,coop,,,,,,,
,,html-keyboard-response,12,2.0.0,220501,aycrjgc94c,693e609928541f4126f49c4b,693eec4d67b2988724128f33,35,playOwnGame,,,,{"R":10,"P":5,"S":3,"T":8},3,8,10,5,SH,Blue,coop,,,,,,,
[{"page_index":0,"viewing_time":4013}],4014,instructions,13,2.1.0,224516,aycrjgc94c,693e609928541f4126f49c4b,693eec4d67b2988724128f33,35,,,,,,,,,,,,,,,,,,,
,,html-keyboard-response,14,2.0.0,234392,aycrjgc94c,693e609928541f4126f49c4b,693eec4d67b2988724128f33,35,socialPredictionGame,,,,{"R":10,"P":5,"S":10,"T":8},10,8,10,5,HG,Red,coop,D.T.,opt_nat,coop,5,1,9873.300000011921,
,20926,html-keyboard-response,15,2.0.0,255321,aycrjgc94c,693e609928541f4126f49c4b,693eec4d67b2988724128f33,35,feedbackTrial,y,,,,,,,,,,,,,,,,,
                    <div style="text-align:center;">
                        <p style="color:green; font-size:24px;">Correct!</p><p>You now have 1 points.</p>
                        <p> Press any key to continue. </p>
                    </div>
                    
,,html-keyboard-response,16,2.0.0,261904,aycrjgc94c,693e609928541f4126f49c4b,693eec4d67b2988724128f33,35,socialPredictionGame,,,,{"R":10,"P":5,"S":10,"T":12},10,12,10,5,SG,Blue,def,D.T.,opt_nat,def,4,1,6580.599999964237,
,5144,html-keyboard-response,17,2.0.0,267050,aycrjgc94c,693e609928541f4126f49c4b,693eec4d67b2988724128f33,35,feedbackTrial,r,,,,,,,,,,,,,,,,,
                    <div style="text-align:center;">
                        <p style="color:green; font-size:24px;">Correct!</p><p>You now have 2 points.</p>
                        <p> Press any key to continue. </p>
                    </div>
                    
,,html-keyboard-response,18,2.0.0,272705,aycrjgc94c,693e609928541f4126f49c4b,693eec4d67b2988724128f33,35,socialPredictionGame,,,,{"R":10,"P":5,"S":3,"T":8},3,8,10,5,SH,Red,coop,D.T.,opt_nat,coop,4,1,5652.599999964237,
,5539,html-keyboard-response,19,2.0.0,278245,aycrjgc94c,693e609928541f4126f49c4b,693eec4d67b2988724128f33,35,feedbackTrial,j,,,,,,,,,,,,,,,,,
                    <div style="text-align:center;">
                        <p style="color:green; font-size:24px;">Correct!</p><p>You now have 3 points.</p>
                        <p> Press any key to continue. </p>
                    </div>
                    
,,html-keyboard-response,20,2.0.0,281637,aycrjgc94c,693e609928541f4126f49c4b,693eec4d67b2988724128f33,35,socialPredictionGame,,,,{"R":10,"P":5,"S":0,"T":8},0,8,10,5,SH,Blue,def,D.T.,opt_nat,coop,5,0,3389.300000011921,
,2596,html-keyboard-response,21,2.0.0,284235,aycrjgc94c,693e609928541f4126f49c4b,693eec4d67b2988724128f33,35,feedbackTrial,h,,,,,,,,,,,,,,,,,
                    <div style="text-align:center;">
                        <p style="color:red; font-size:24px;">Incorrect</p><p>You still have 3 points.</p>
                        <p> Press any key to continue. </p>
                    </div>
                    
,,html-keyboard-response,22,2.0.0,288773,aycrjgc94c,693e609928541f4126f49c4b,693eec4d67b2988724128f33,35,socialPredictionGame,,,,{"R":10,"P":5,"S":7,"T":8},7,8,10,5,HG,Red,coop,D.T.,opt_nat,coop,5,1,4536.699999988079,
,1291,html-keyboard-response,23,2.0.0,290065,aycrjgc94c,693e609928541f4126f49c4b,693eec4d67b2988724128f33,35,feedbackTrial,h,,,,,,,,,,,,,,,,,
                    <div style="text-align:center;">
                        <p style="color:green; font-size:24px;">Correct!</p><p>You now have 4 points.</p>
                        <p> Press any key to continue. </p>
                    </div>
                    
,,html-keyboard-response,24,2.0.0,292573,aycrjgc94c,693e609928541f4126f49c4b,693eec4d67b2988724128f33,35,socialPredictionGame,,,,{"R":10,"P":5,"S":10,"T":5},10,5,10,5,HG,Red,coop,D.T.,opt_nat,coop,6,1,2505.7000000476837,
,1471,html-keyboard-response,25,2.0.0,294046,aycrjgc94c,693e609928541f4126f49c4b,693eec4d67b2988724128f33,35,feedbackTrial, ,,,,,,,,,,,,,,,,,
                    <div style="text-align:center;">
                        <p style="color:green; font-size:24px;">Correct!</p><p>You now have 5 points.</p>
                        <p> Press any key to continue. </p>
                    </div>
                    
,,html-keyboard-response,26,2.0.0,297569,aycrjgc94c,693e609928541f4126f49c4b,693eec4d67b2988724128f33,35,socialPredictionGame,,,,{"R":10,"P":5,"S":7,"T":12},7,12,10,5,SG,Red,coop,D.T.,opt_nat,def,6,0,3520.800000011921,
,1377,html-keyboard-response,27,2.0.0,298947,aycrjgc94c,693e609928541f4126f49c4b,693eec4d67b2988724128f33,35,feedbackTrial, ,,,,,,,,,,,,,,,,,
                    <div style="text-align:center;">
                        <p style="color:red; font-size:24px;">Incorrect</p><p>You still have 5 points.</p>
                        <p> Press any key to continue. </p>
                    </div>
                    
,,html-keyboard-response,28,2.0.0,302725,aycrjgc94c,693e609928541f4126f49c4b,693eec4d67b2988724128f33,35,socialPredictionGame,,,,{"R":10,"P":5,"S":7,"T":5},7,5,10,5,HG,Red,coop,D.T.,opt_nat,coop,6,1,3775.800000011921,
,852,html-keyboard-response,29,2.0.0,303578,aycrjgc94c,693e609928541f4126f49c4b,693eec4d67b2988724128f33,35,feedbackTrial, ,,,,,,,,,,,,,,,,,
                    <div style="text-align:center;">
                        <p style="color:green; font-size:24px;">Correct!</p><p>You now have 6 points.</p>
                        <p> Press any key to continue. </p>
                    </div>
                    
,,html-keyboard-response,30,2.0.0,307434,aycrjgc94c,693e609928541f4126f49c4b,693eec4d67b2988724128f33,35,socialPredictionGame,,,,{"R":10,"P":5,"S":3,"T":12},3,12,10,5,PD,Blue,def,D.T.,opt_nat,def,6,1,3854,
,1061,html-keyboard-response,31,2.0.0,308497,aycrjgc94c,693e609928541f4126f49c4b,693eec4d67b2988724128f33,35,feedbackTrial, ,,,,,,,,,,,,,,,,,
                    <div style="text-align:center;">
                        <p style="color:green; font-size:24px;">Correct!</p><p>You now have 7 points.</p>
                        <p> Press any key to continue. </p>
                    </div>
                    
,,html-keyboard-response,32,2.0.0,314350,aycrjgc94c,693e609928541f4126f49c4b,693eec4d67b2988724128f33,35,socialPredictionGame,,,,{"R":10,"P":5,"S":7,"T":15},7,15,10,5,SG,Blue,def,D.T.,opt_nat,def,6,1,5851.100000023842,
,900,html-keyboard-response,33,2.0.0,315252,aycrjgc94c,693e609928541f4126f49c4b,693eec4d67b2988724128f33,35,feedbackTrial, ,,,,,,,,,,,,,,,,,
                    <div style="text-align:center;">
                        <p style="color:green; font-size:24px;">Correct!</p><p>You now have 8 points.</p>
                        <p> Press any key to continue. </p>
                    </div>
                    
,,html-keyboard-response,34,2.0.0,319424,aycrjgc94c,693e609928541f4126f49c4b,693eec4d67b2988724128f33,35,socialPredictionGame,,,,{"R":10,"P":5,"S":0,"T":12},0,12,10,5,PD,Blue,def,D.T.,opt_nat,def,7,1,4170.899999976158,
,961,html-keyboard-response,35,2.0.0,320387,aycrjgc94c,693e609928541f4126f49c4b,693eec4d67b2988724128f33,35,feedbackTrial,b,,,,,,,,,,,,,,,,,
                    <div style="text-align:center;">
                        <p style="color:green; font-size:24px;">Correct!</p><p>You now have 9 points.</p>
                        <p> Press any key to continue. </p>
                    </div>
                    
,,html-keyboard-response,36,2.0.0,326010,aycrjgc94c,693e609928541f4126f49c4b,693eec4d67b2988724128f33,35,socialPredictionGame,,,,{"R":10,"P":5,"S":0,"T":15},0,15,10,5,PD,Blue,def,D.T.,opt_nat,def,5,1,5621.099999964237,
,810,html-keyboard-response,37,2.0.0,326822,aycrjgc94c,693e609928541f4126f49c4b,693eec4d67b2988724128f33,35,feedbackTrial, ,,,,,,,,,,,,,,,,,
                    <div style="text-align:center;">
                        <p style="color:green; font-size:24px;">Correct!</p><p>You now have 10 points.</p>
                        <p> Press any key to continue. </p>
                    </div>
                    
,,html-keyboard-response,38,2.0.0,335145,aycrjgc94c,693e609928541f4126f49c4b,693eec4d67b2988724128f33,35,socialPredictionGame,,,,{"R":10,"P":5,"S":0,"T":5},0,5,10,5,SH,Blue,def,D.T.,opt_nat,coop,6,0,8321.199999988079,
,1105,html-keyboard-response,39,2.0.0,336251,aycrjgc94c,693e609928541f4126f49c4b,693eec4d67b2988724128f33,35,feedbackTrial, ,,,,,,,,,,,,,,,,,
                    <div style="text-align:center;">
                        <p style="color:red; font-size:24px;">Incorrect</p><p>You still have 10 points.</p>
                        <p> Press any key to continue. </p>
                    </div>
                    
,,html-keyboard-response,40,2.0.0,343605,aycrjgc94c,693e609928541f4126f49c4b,693eec4d67b2988724128f33,35,socialPredictionGame,,,,{"R":10,"P":5,"S":10,"T":15},10,15,10,5,SG,Red,coop,D.T.,opt_nat,def,7,0,7351.600000023842,
,1039,html-keyboard-response,41,2.0.0,344645,aycrjgc94c,693e609928541f4126f49c4b,693eec4d67b2988724128f33,35,feedbackTrial, ,,,,,,,,,,,,,,,,,
                    <div style="text-align:center;">
                        <p style="color:red; font-size:24px;">Incorrect</p><p>You still have 10 points.</p>
                        <p> Press any key to continue. </p>
                    </div>
                    
,,html-keyboard-response,42,2.0.0,348691,aycrjgc94c,693e609928541f4126f49c4b,693eec4d67b2988724128f33,35,socialPredictionGame,,,,{"R":10,"P":5,"S":3,"T":15},3,15,10,5,PD,Blue,def,D.T.,opt_nat,def,7,1,4044.2999999523163,
,984,html-keyboard-response,43,2.0.0,349676,aycrjgc94c,693e609928541f4126f49c4b,693eec4d67b2988724128f33,35,feedbackTrial, ,,,,,,,,,,,,,,,,,
                    <div style="text-align:center;">
                        <p style="color:green; font-size:24px;">Correct!</p><p>You now have 11 points.</p>
                        <p> Press any key to continue. </p>
                    </div>
                    
,,html-keyboard-response,44,2.0.0,354246,aycrjgc94c,693e609928541f4126f49c4b,693eec4d67b2988724128f33,35,socialPredictionGame,,,,{"R":10,"P":5,"S":3,"T":5},3,5,10,5,SH,Red,coop,D.T.,opt_nat,coop,6,1,4568.300000011921,
,872,html-keyboard-response,45,2.0.0,355120,aycrjgc94c,693e609928541f4126f49c4b,693eec4d67b2988724128f33,35,feedbackTrial, ,,,,,,,,,,,,,,,,,
                    <div style="text-align:center;">
                        <p style="color:green; font-size:24px;">Correct!</p><p>You now have 12 points.</p>
                        <p> Press any key to continue. </p>
                    </div>
                    
,89535,survey-html-form,46,2.1.0,444657,aycrjgc94c,693e609928541f4126f49c4b,693eec4d67b2988724128f33,35,strategyPrediction,{"strategyPrediction":"Taking the opponent that gives you the best odds of winning."},,,,,,,,,,,,,,,,,
[{"page_index":0,"viewing_time":2133}],2133,instructions,47,2.1.0,446792,aycrjgc94c,693e609928541f4126f49c4b,693eec4d67b2988724128f33,35,,,,,,,,,,,,,,,,,,,
,,html-keyboard-response,48,2.0.0,459939,aycrjgc94c,693e609928541f4126f49c4b,693eec4d67b2988724128f33,35,socialPredictionGame,,,,{"R":10,"P":5,"S":3,"T":15},3,15,10,5,PD,Purple,def,E.B.,pess_nat,def,7,1,13145.099999964237,
,1331,html-keyboard-response,49,2.0.0,461272,aycrjgc94c,693e609928541f4126f49c4b,693eec4d67b2988724128f33,35,feedbackTrial, ,,,,,,,,,,,,,,,,,
                    <div style="text-align:center;">
                        <p style="color:green; font-size:24px;">Correct!</p><p>You now have 13 points.</p>
                        <p> Press any key to continue. </p>
                    </div>
                    
,,html-keyboard-response,50,2.0.0,465231,aycrjgc94c,693e609928541f4126f49c4b,693eec4d67b2988724128f33,35,socialPredictionGame,,,,{"R":10,"P":5,"S":0,"T":8},0,8,10,5,SH,Purple,def,E.B.,pess_nat,def,6,1,3957.2000000476837,
,1177,html-keyboard-response,51,2.0.0,466410,aycrjgc94c,693e609928541f4126f49c4b,693eec4d67b2988724128f33,35,feedbackTrial, ,,,,,,,,,,,,,,,,,
                    <div style="text-align:center;">
                        <p style="color:green; font-size:24px;">Correct!</p><p>You now have 14 points.</p>
                        <p> Press any key to continue. </p>
                    </div>
                    
,,html-keyboard-response,52,2.0.0,470901,aycrjgc94c,693e609928541f4126f49c4b,693eec4d67b2988724128f33,35,socialPredictionGame,,,,{"R":10,"P":5,"S":0,"T":12},0,12,10,5,PD,Purple,def,E.B.,pess_nat,def,7,1,4489.899999976158,
,874,html-keyboard-response,53,2.0.0,471777,aycrjgc94c,693e609928541f4126f49c4b,693eec4d67b2988724128f33,35,feedbackTrial, ,,,,,,,,,,,,,,,,,
                    <div style="text-align:center;">
                        <p style="color:green; font-size:24px;">Correct!</p><p>You now have 15 points.</p>
                        <p> Press any key to continue. </p>
                    </div>
                    
,,html-keyboard-response,54,2.0.0,476725,aycrjgc94c,693e609928541f4126f49c4b,693eec4d67b2988724128f33,35,socialPredictionGame,,,,{"R":10,"P":5,"S":3,"T":12},3,12,10,5,PD,Purple,def,E.B.,pess_nat,def,7,1,4946.699999988079,
,1191,html-keyboard-response,55,2.0.0,477918,aycrjgc94c,693e609928541f4126f49c4b,693eec4d67b2988724128f33,35,feedbackTrial, ,,,,,,,,,,,,,,,,,
                    <div style="text-align:center;">
                        <p style="color:green; font-size:24px;">Correct!</p><p>You now have 16 points.</p>
                        <p> Press any key to continue. </p>
                    </div>
                    
,,html-keyboard-response,56,2.0.0,487477,aycrjgc94c,693e609928541f4126f49c4b,693eec4d67b2988724128f33,35,socialPredictionGame,,,,{"R":10,"P":5,"S":10,"T":15},10,15,10,5,SG,Red,coop,E.B.,pess_nat,coop,5,1,9554.100000023842,
,947,html-keyboard-response,57,2.0.0,488426,aycrjgc94c,693e609928541f4126f49c4b,693eec4d67b2988724128f33,35,feedbackTrial, ,,,,,,,,,,,,,,,,,
                    <div style="text-align:center;">
                        <p style="color:green; font-size:24px;">Correct!</p><p>You now have 17 points.</p>
                        <p> Press any key to continue. </p>
                    </div>
                    
,,html-keyboard-response,58,2.0.0,494805,aycrjgc94c,693e609928541f4126f49c4b,693eec4d67b2988724128f33,35,socialPredictionGame,,,,{"R":10,"P":5,"S":3,"T":5},3,5,10,5,SH,Red,coop,E.B.,pess_nat,def,6,0,6377.5,
,1112,html-keyboard-response,59,2.0.0,495919,aycrjgc94c,693e609928541f4126f49c4b,693eec4d67b2988724128f33,35,feedbackTrial, ,,,,,,,,,,,,,,,,,
                    <div style="text-align:center;">
                        <p style="color:red; font-size:24px;">Incorrect</p><p>You still have 17 points.</p>
                        <p> Press any key to continue. </p>
                    </div>
                    
,,html-keyboard-response,60,2.0.0,502580,aycrjgc94c,693e609928541f4126f49c4b,693eec4d67b2988724128f33,35,socialPredictionGame,,,,{"R":10,"P":5,"S":0,"T":5},0,5,10,5,SH,Red,coop,E.B.,pess_nat,def,5,0,6658.600000023842,
,1012,html-keyboard-response,61,2.0.0,503594,aycrjgc94c,693e609928541f4126f49c4b,693eec4d67b2988724128f33,35,feedbackTrial, ,,,,,,,,,,,,,,,,,
                    <div style="text-align:center;">
                        <p style="color:red; font-size:24px;">Incorrect</p><p>You still have 17 points.</p>
                        <p> Press any key to continue. </p>
                    </div>
                    
,,html-keyboard-response,62,2.0.0,509287,aycrjgc94c,693e609928541f4126f49c4b,693eec4d67b2988724128f33,35,socialPredictionGame,,,,{"R":10,"P":5,"S":7,"T":12},7,12,10,5,SG,Purple,def,E.B.,pess_nat,coop,7,0,5691.600000023842,
,1037,html-keyboard-response,63,2.0.0,510325,aycrjgc94c,693e609928541f4126f49c4b,693eec4d67b2988724128f33,35,feedbackTrial, ,,,,,,,,,,,,,,,,,
                    <div style="text-align:center;">
                        <p style="color:red; font-size:24px;">Incorrect</p><p>You still have 17 points.</p>
                        <p> Press any key to continue. </p>
                    </div>
                    
,,html-keyboard-response,64,2.0.0,516739,aycrjgc94c,693e609928541f4126f49c4b,693eec4d67b2988724128f33,35,socialPredictionGame,,,,{"R":10,"P":5,"S":0,"T":15},0,15,10,5,PD,Purple,def,E.B.,pess_nat,def,7,1,6411.800000011921,
,995,html-keyboard-response,65,2.0.0,517736,aycrjgc94c,693e609928541f4126f49c4b,693eec4d67b2988724128f33,35,feedbackTrial, ,,,,,,,,,,,,,,,,,
                    <div style="text-align:center;">
                        <p style="color:green; font-size:24px;">Correct!</p><p>You now have 18 points.</p>
                        <p> Press any key to continue. </p>
                    </div>
                    
,,html-keyboard-response,66,2.0.0,521926,aycrjgc94c,693e609928541f4126f49c4b,693eec4d67b2988724128f33,35,socialPredictionGame,,,,{"R":10,"P":5,"S":7,"T":15},7,15,10,5,SG,Purple,def,E.B.,pess_nat,coop,7,0,4187.899999976158,
,3007,html-keyboard-response,67,2.0.0,524935,aycrjgc94c,693e609928541f4126f49c4b,693eec4d67b2988724128f33,35,feedbackTrial,b,,,,,,,,,,,,,,,,,
                    <div style="text-align:center;">
                        <p style="color:red; font-size:24px;">Incorrect</p><p>You still have 18 points.</p>
                        <p> Press any key to continue. </p>
                    </div>
                    
,,html-keyboard-response,68,2.0.0,529786,aycrjgc94c,693e609928541f4126f49c4b,693eec4d67b2988724128f33,35,socialPredictionGame,,,,{"R":10,"P":5,"S":7,"T":8},7,8,10,5,HG,Red,coop,E.B.,pess_nat,coop,7,1,4849.5,
,1000,html-keyboard-response,69,2.0.0,530787,aycrjgc94c,693e609928541f4126f49c4b,693eec4d67b2988724128f33,35,feedbackTrial, ,,,,,,,,,,,,,,,,,
                    <div style="text-align:center;">
                        <p style="color:green; font-size:24px;">Correct!</p><p>You now have 19 points.</p>
                        <p> Press any key to continue. </p>
                    </div>
                    
,,html-keyboard-response,70,2.0.0,538291,aycrjgc94c,693e609928541f4126f49c4b,693eec4d67b2988724128f33,35,socialPredictionGame,,,,{"R":10,"P":5,"S":3,"T":8},3,8,10,5,SH,Purple,def,E.B.,pess_nat,def,7,1,7501.600000023842,
,1039,html-keyboard-response,71,2.0.0,539331,aycrjgc94c,693e609928541f4126f49c4b,693eec4d67b2988724128f33,35,feedbackTrial, ,,,,,,,,,,,,,,,,,
                    <div style="text-align:center;">
                        <p style="color:green; font-size:24px;">Correct!</p><p>You now have 20 points.</p>
                        <p> Press any key to continue. </p>
                    </div>
                    
,,html-keyboard-response,72,2.0.0,545200,aycrjgc94c,693e609928541f4126f49c4b,693eec4d67b2988724128f33,35,socialPredictionGame,,,,{"R":10,"P":5,"S":10,"T":12},10,12,10,5,SG,Red,coop,E.B.,pess_nat,coop,6,1,5867,
,955,html-keyboard-response,73,2.0.0,546157,aycrjgc94c,693e609928541f4126f49c4b,693eec4d67b2988724128f33,35,feedbackTrial, ,,,,,,,,,,,,,,,,,
                    <div style="text-align:center;">
                        <p style="color:green; font-size:24px;">Correct!</p><p>You now have 21 points.</p>
                        <p> Press any key to continue. </p>
                    </div>
                    
,,html-keyboard-response,74,2.0.0,554639,aycrjgc94c,693e609928541f4126f49c4b,693eec4d67b2988724128f33,35,socialPredictionGame,,,,{"R":10,"P":5,"S":10,"T":8},10,8,10,5,HG,Red,coop,E.B.,pess_nat,coop,7,1,8480.800000011921,
,847,html-keyboard-response,75,2.0.0,555488,aycrjgc94c,693e609928541f4126f49c4b,693eec4d67b2988724128f33,35,feedbackTrial, ,,,,,,,,,,,,,,,,,
                    <div style="text-align:center;">
                        <p style="color:green; font-size:24px;">Correct!</p><p>You now have 22 points.</p>
                        <p> Press any key to continue. </p>
                    </div>
                    
,,html-keyboard-response,76,2.0.0,563687,aycrjgc94c,693e609928541f4126f49c4b,693eec4d67b2988724128f33,35,socialPredictionGame,,,,{"R":10,"P":5,"S":10,"T":5},10,5,10,5,HG,Purple,def,E.B.,pess_nat,coop,7,0,8196.899999976158,
,969,html-keyboard-response,77,2.0.0,564658,aycrjgc94c,693e609928541f4126f49c4b,693eec4d67b2988724128f33,35,feedbackTrial, ,,,,,,,,,,,,,,,,,
                    <div style="text-align:center;">
                        <p style="color:red; font-size:24px;">Incorrect</p><p>You still have 22 points.</p>
                        <p> Press any key to continue. </p>
                    </div>
                    
,,html-keyboard-response,78,2.0.0,569481,aycrjgc94c,693e609928541f4126f49c4b,693eec4d67b2988724128f33,35,socialPredictionGame,,,,{"R":10,"P":5,"S":7,"T":5},7,5,10,5,HG,Red,coop,E.B.,pess_nat,coop,7,1,4821.300000011921,
,945,html-keyboard-response,79,2.0.0,570428,aycrjgc94c,693e609928541f4126f49c4b,693eec4d67b2988724128f33,35,feedbackTrial, ,,,,,,,,,,,,,,,,,
                    <div style="text-align:center;">
                        <p style="color:green; font-size:24px;">Correct!</p><p>You now have 23 points.</p>
                        <p> Press any key to continue. </p>
                    </div>
                    
,49966,survey-html-form,80,2.1.0,620395,aycrjgc94c,693e609928541f4126f49c4b,693eec4d67b2988724128f33,35,strategyPrediction,{"strategyPrediction":"Minimizing risk by avoiding opponentts who are inconsistent"},,,,,,,,,,,,,,,,,
[{"page_index":0,"viewing_time":2221}],2221,instructions,81,2.1.0,622617,aycrjgc94c,693e609928541f4126f49c4b,693eec4d67b2988724128f33,35,,,,,,,,,,,,,,,,,,,
,,html-keyboard-response,82,2.0.0,636329,aycrjgc94c,693e609928541f4126f49c4b,693eec4d67b2988724128f33,35,socialPredictionGame,,,,{"R":10,"P":5,"S":10,"T":8},10,8,10,5,HG,Green,def,G.P.,pess_inv,def,8,1,13709.899999976158,
,1353,html-keyboard-response,83,2.0.0,637684,aycrjgc94c,693e609928541f4126f49c4b,693eec4d67b2988724128f33,35,feedbackTrial, ,,,,,,,,,,,,,,,,,
                    <div style="text-align:center;">
                        <p style="color:green; font-size:24px;">Correct!</p><p>You now have 24 points.</p>
                        <p> Press any key to continue. </p>
                    </div>
                    
,,html-keyboard-response,84,2.0.0,641611,aycrjgc94c,693e609928541f4126f49c4b,693eec4d67b2988724128f33,35,socialPredictionGame,,,,{"R":10,"P":5,"S":7,"T":15},7,15,10,5,SG,Purple,coop,G.P.,pess_inv,def,6,0,3924.800000011921,
,1221,html-keyboard-response,85,2.0.0,642834,aycrjgc94c,693e609928541f4126f49c4b,693eec4d67b2988724128f33,35,feedbackTrial, ,,,,,,,,,,,,,,,,,
                    <div style="text-align:center;">
                        <p style="color:red; font-size:24px;">Incorrect</p><p>You still have 24 points.</p>
                        <p> Press any key to continue. </p>
                    </div>
                    
,,html-keyboard-response,86,2.0.0,647007,aycrjgc94c,693e609928541f4126f49c4b,693eec4d67b2988724128f33,35,socialPredictionGame,,,,{"R":10,"P":5,"S":0,"T":8},0,8,10,5,SH,Green,def,G.P.,pess_inv,coop,7,0,4171.300000011921,
,1076,html-keyboard-response,87,2.0.0,648085,aycrjgc94c,693e609928541f4126f49c4b,693eec4d67b2988724128f33,35,feedbackTrial, ,,,,,,,,,,,,,,,,,
                    <div style="text-align:center;">
                        <p style="color:red; font-size:24px;">Incorrect</p><p>You still have 24 points.</p>
                        <p> Press any key to continue. </p>
                    </div>
                    
,,html-keyboard-response,88,2.0.0,652944,aycrjgc94c,693e609928541f4126f49c4b,693eec4d67b2988724128f33,35,socialPredictionGame,,,,{"R":10,"P":5,"S":3,"T":5},3,5,10,5,SH,Purple,coop,G.P.,pess_inv,coop,5,1,4857.800000011921,
,886,html-keyboard-response,89,2.0.0,653832,aycrjgc94c,693e609928541f4126f49c4b,693eec4d67b2988724128f33,35,feedbackTrial, ,,,,,,,,,,,,,,,,,
                    <div style="text-align:center;">
                        <p style="color:green; font-size:24px;">Correct!</p><p>You now have 25 points.</p>
                        <p> Press any key to continue. </p>
                    </div>
                    
,,html-keyboard-response,90,2.0.0,659039,aycrjgc94c,693e609928541f4126f49c4b,693eec4d67b2988724128f33,35,socialPredictionGame,,,,{"R":10,"P":5,"S":10,"T":5},10,5,10,5,HG,Purple,coop,G.P.,pess_inv,def,4,0,5205.100000023842,
,912,html-keyboard-response,91,2.0.0,659952,aycrjgc94c,693e609928541f4126f49c4b,693eec4d67b2988724128f33,35,feedbackTrial, ,,,,,,,,,,,,,,,,,
                    <div style="text-align:center;">
                        <p style="color:red; font-size:24px;">Incorrect</p><p>You still have 25 points.</p>
                        <p> Press any key to continue. </p>
                    </div>
                    
,,html-keyboard-response,92,2.0.0,667108,aycrjgc94c,693e609928541f4126f49c4b,693eec4d67b2988724128f33,35,socialPredictionGame,,,,{"R":10,"P":5,"S":10,"T":12},10,12,10,5,SG,Purple,coop,G.P.,pess_inv,def,6,0,7154.100000023842,
,1073,html-keyboard-response,93,2.0.0,668183,aycrjgc94c,693e609928541f4126f49c4b,693eec4d67b2988724128f33,35,feedbackTrial, ,,,,,,,,,,,,,,,,,
                    <div style="text-align:center;">
                        <p style="color:red; font-size:24px;">Incorrect</p><p>You still have 25 points.</p>
                        <p> Press any key to continue. </p>
                    </div>
                    
,,html-keyboard-response,94,2.0.0,674230,aycrjgc94c,693e609928541f4126f49c4b,693eec4d67b2988724128f33,35,socialPredictionGame,,,,{"R":10,"P":5,"S":0,"T":5},0,5,10,5,SH,Purple,coop,G.P.,pess_inv,coop,7,1,6045.5,
,1150,html-keyboard-response,95,2.0.0,675382,aycrjgc94c,693e609928541f4126f49c4b,693eec4d67b2988724128f33,35,feedbackTrial, ,,,,,,,,,,,,,,,,,
                    <div style="text-align:center;">
                        <p style="color:green; font-size:24px;">Correct!</p><p>You now have 26 points.</p>
                        <p> Press any key to continue. </p>
                    </div>
                    
,,html-keyboard-response,96,2.0.0,679323,aycrjgc94c,693e609928541f4126f49c4b,693eec4d67b2988724128f33,35,socialPredictionGame,,,,{"R":10,"P":5,"S":0,"T":12},0,12,10,5,PD,Purple,coop,G.P.,pess_inv,coop,5,1,3939.5,
,870,html-keyboard-response,97,2.0.0,680194,aycrjgc94c,693e609928541f4126f49c4b,693eec4d67b2988724128f33,35,feedbackTrial, ,,,,,,,,,,,,,,,,,
                    <div style="text-align:center;">
                        <p style="color:green; font-size:24px;">Correct!</p><p>You now have 27 points.</p>
                        <p> Press any key to continue. </p>
                    </div>
                    
,,html-keyboard-response,98,2.0.0,687174,aycrjgc94c,693e609928541f4126f49c4b,693eec4d67b2988724128f33,35,socialPredictionGame,,,,{"R":10,"P":5,"S":3,"T":12},3,12,10,5,PD,Purple,coop,G.P.,pess_inv,coop,5,1,6978.699999988079,
,857,html-keyboard-response,99,2.0.0,688032,aycrjgc94c,693e609928541f4126f49c4b,693eec4d67b2988724128f33,35,feedbackTrial, ,,,,,,,,,,,,,,,,,
                    <div style="text-align:center;">
                        <p style="color:green; font-size:24px;">Correct!</p><p>You now have 28 points.</p>
                        <p> Press any key to continue. </p>
                    </div>
                    
,,html-keyboard-response,100,2.0.0,692777,aycrjgc94c,693e609928541f4126f49c4b,693eec4d67b2988724128f33,35,socialPredictionGame,,,,{"R":10,"P":5,"S":3,"T":15},3,15,10,5,PD,Purple,coop,G.P.,pess_inv,coop,5,1,4742.899999976158,
,961,html-keyboard-response,101,2.0.0,693740,aycrjgc94c,693e609928541f4126f49c4b,693eec4d67b2988724128f33,35,feedbackTrial, ,,,,,,,,,,,,,,,,,
                    <div style="text-align:center;">
                        <p style="color:green; font-size:24px;">Correct!</p><p>You now have 29 points.</p>
                        <p> Press any key to continue. </p>
                    </div>
                    
,,html-keyboard-response,102,2.0.0,698118,aycrjgc94c,693e609928541f4126f49c4b,693eec4d67b2988724128f33,35,socialPredictionGame,,,,{"R":10,"P":5,"S":7,"T":8},7,8,10,5,HG,Purple,coop,G.P.,pess_inv,def,8,0,4375.899999976158,
,1090,html-keyboard-response,103,2.0.0,699211,aycrjgc94c,693e609928541f4126f49c4b,693eec4d67b2988724128f33,35,feedbackTrial, ,,,,,,,,,,,,,,,,,
                    <div style="text-align:center;">
                        <p style="color:red; font-size:24px;">Incorrect</p><p>You still have 29 points.</p>
                        <p> Press any key to continue. </p>
                    </div>
                    
,,html-keyboard-response,104,2.0.0,704625,aycrjgc94c,693e609928541f4126f49c4b,693eec4d67b2988724128f33,35,socialPredictionGame,,,,{"R":10,"P":5,"S":0,"T":15},0,15,10,5,PD,Purple,coop,G.P.,pess_inv,coop,5,1,5412.300000011921,
,1111,html-keyboard-response,105,2.0.0,705737,aycrjgc94c,693e609928541f4126f49c4b,693eec4d67b2988724128f33,35,feedbackTrial, ,,,,,,,,,,,,,,,,,
                    <div style="text-align:center;">
                        <p style="color:green; font-size:24px;">Correct!</p><p>You now have 30 points.</p>
                        <p> Press any key to continue. </p>
                    </div>
                    
,,html-keyboard-response,106,2.0.0,713606,aycrjgc94c,693e609928541f4126f49c4b,693eec4d67b2988724128f33,35,socialPredictionGame,,,,{"R":10,"P":5,"S":7,"T":12},7,12,10,5,SG,Purple,coop,G.P.,pess_inv,def,6,0,7867.299999952316,
,1284,html-keyboard-response,107,2.0.0,714892,aycrjgc94c,693e609928541f4126f49c4b,693eec4d67b2988724128f33,35,feedbackTrial, ,,,,,,,,,,,,,,,,,
                    <div style="text-align:center;">
                        <p style="color:red; font-size:24px;">Incorrect</p><p>You still have 30 points.</p>
                        <p> Press any key to continue. </p>
                    </div>
                    
,,html-keyboard-response,108,2.0.0,721363,aycrjgc94c,693e609928541f4126f49c4b,693eec4d67b2988724128f33,35,socialPredictionGame,,,,{"R":10,"P":5,"S":7,"T":5},7,5,10,5,HG,Green,def,G.P.,pess_inv,def,6,1,6469.600000023842,
,1147,html-keyboard-response,109,2.0.0,722512,aycrjgc94c,693e609928541f4126f49c4b,693eec4d67b2988724128f33,35,feedbackTrial, ,,,,,,,,,,,,,,,,,
                    <div style="text-align:center;">
                        <p style="color:green; font-size:24px;">Correct!</p><p>You now have 31 points.</p>
                        <p> Press any key to continue. </p>
                    </div>
                    
,,html-keyboard-response,110,2.0.0,726083,aycrjgc94c,693e609928541f4126f49c4b,693eec4d67b2988724128f33,35,socialPredictionGame,,,,{"R":10,"P":5,"S":3,"T":8},3,8,10,5,SH,Green,def,G.P.,pess_inv,coop,6,0,3569.099999964237,
,1046,html-keyboard-response,111,2.0.0,727130,aycrjgc94c,693e609928541f4126f49c4b,693eec4d67b2988724128f33,35,feedbackTrial, ,,,,,,,,,,,,,,,,,
                    <div style="text-align:center;">
                        <p style="color:red; font-size:24px;">Incorrect</p><p>You still have 31 points.</p>
                        <p> Press any key to continue. </p>
                    </div>
                    
,,html-keyboard-response,112,2.0.0,736493,aycrjgc94c,693e609928541f4126f49c4b,693eec4d67b2988724128f33,35,socialPredictionGame,,,,{"R":10,"P":5,"S":10,"T":15},10,15,10,5,SG,Purple,coop,G.P.,pess_inv,def,7,0,9361,
,1046,html-keyboard-response,113,2.0.0,737541,aycrjgc94c,693e609928541f4126f49c4b,693eec4d67b2988724128f33,35,feedbackTrial, ,,,,,,,,,,,,,,,,,
                    <div style="text-align:center;">
                        <p style="color:red; font-size:24px;">Incorrect</p><p>You still have 31 points.</p>
                        <p> Press any key to continue. </p>
                    </div>
                    
,40175,survey-html-form,114,2.1.0,777717,aycrjgc94c,693e609928541f4126f49c4b,693eec4d67b2988724128f33,35,strategyPrediction,{"strategyPrediction":"Maximizing expected payoff by picking match up"},,,,,,,,,,,,,,,,,
[{"page_index":0,"viewing_time":1573}],1574,instructions,115,2.1.0,779292,aycrjgc94c,693e609928541f4126f49c4b,693eec4d67b2988724128f33,35,,,,,,,,,,,,,,,,,,,
,,html-keyboard-response,116,2.0.0,785127,aycrjgc94c,693e609928541f4126f49c4b,693eec4d67b2988724128f33,35,socialPredictionGame,,,,{"R":10,"P":5,"S":3,"T":8},3,8,10,5,SH,Blue,coop,F.A.,opt_inv,def,7,0,5832.599999964237,
,1127,html-keyboard-response,117,2.0.0,786255,aycrjgc94c,693e609928541f4126f49c4b,693eec4d67b2988724128f33,35,feedbackTrial, ,,,,,,,,,,,,,,,,,
                    <div style="text-align:center;">
                        <p style="color:red; font-size:24px;">Incorrect</p><p>You still have 31 points.</p>
                        <p> Press any key to continue. </p>
                    </div>
                    
,,html-keyboard-response,118,2.0.0,790615,aycrjgc94c,693e609928541f4126f49c4b,693eec4d67b2988724128f33,35,socialPredictionGame,,,,{"R":10,"P":5,"S":3,"T":5},3,5,10,5,SH,Blue,coop,F.A.,opt_inv,def,6,0,4357.800000011921,
,1204,html-keyboard-response,119,2.0.0,791820,aycrjgc94c,693e609928541f4126f49c4b,693eec4d67b2988724128f33,35,feedbackTrial, ,,,,,,,,,,,,,,,,,
                    <div style="text-align:center;">
                        <p style="color:red; font-size:24px;">Incorrect</p><p>You still have 31 points.</p>
                        <p> Press any key to continue. </p>
                    </div>
                    
,,html-keyboard-response,120,2.0.0,796165,aycrjgc94c,693e609928541f4126f49c4b,693eec4d67b2988724128f33,35,socialPredictionGame,,,,{"R":10,"P":5,"S":10,"T":12},10,12,10,5,SG,Green,def,F.A.,opt_inv,coop,6,0,4343.400000035763,
,1218,html-keyboard-response,121,2.0.0,797385,aycrjgc94c,693e609928541f4126f49c4b,693eec4d67b2988724128f33,35,feedbackTrial, ,,,,,,,,,,,,,,,,,
                    <div style="text-align:center;">
                        <p style="color:red; font-size:24px;">Incorrect</p><p>You still have 31 points.</p>
                        <p> Press any key to continue. </p>
                    </div>
                    
,,html-keyboard-response,122,2.0.0,800454,aycrjgc94c,693e609928541f4126f49c4b,693eec4d67b2988724128f33,35,socialPredictionGame,,,,{"R":10,"P":5,"S":3,"T":15},3,15,10,5,PD,Blue,coop,F.A.,opt_inv,coop,5,1,3067.300000011921,
,1163,html-keyboard-response,123,2.0.0,801619,aycrjgc94c,693e609928541f4126f49c4b,693eec4d67b2988724128f33,35,feedbackTrial, ,,,,,,,,,,,,,,,,,
                    <div style="text-align:center;">
                        <p style="color:green; font-size:24px;">Correct!</p><p>You now have 32 points.</p>
                        <p> Press any key to continue. </p>
                    </div>
                    
,,html-keyboard-response,124,2.0.0,807307,aycrjgc94c,693e609928541f4126f49c4b,693eec4d67b2988724128f33,35,socialPredictionGame,,,,{"R":10,"P":5,"S":7,"T":8},7,8,10,5,HG,Blue,coop,F.A.,opt_inv,def,7,0,5685.800000011921,
,1135,html-keyboard-response,125,2.0.0,808443,aycrjgc94c,693e609928541f4126f49c4b,693eec4d67b2988724128f33,35,feedbackTrial, ,,,,,,,,,,,,,,,,,
                    <div style="text-align:center;">
                        <p style="color:red; font-size:24px;">Incorrect</p><p>You still have 32 points.</p>
                        <p> Press any key to continue. </p>
                    </div>
                    
,,html-keyboard-response,126,2.0.0,815909,aycrjgc94c,693e609928541f4126f49c4b,693eec4d67b2988724128f33,35,socialPredictionGame,,,,{"R":10,"P":5,"S":0,"T":15},0,15,10,5,PD,Blue,coop,F.A.,opt_inv,coop,5,1,7463.699999988079,
,1090,html-keyboard-response,127,2.0.0,817000,aycrjgc94c,693e609928541f4126f49c4b,693eec4d67b2988724128f33,35,feedbackTrial, ,,,,,,,,,,,,,,,,,
                    <div style="text-align:center;">
                        <p style="color:green; font-size:24px;">Correct!</p><p>You now have 33 points.</p>
                        <p> Press any key to continue. </p>
                    </div>
                    
,,html-keyboard-response,128,2.0.0,822891,aycrjgc94c,693e609928541f4126f49c4b,693eec4d67b2988724128f33,35,socialPredictionGame,,,,{"R":10,"P":5,"S":0,"T":8},0,8,10,5,SH,Blue,coop,F.A.,opt_inv,def,7,0,5888.600000023842,
,1054,html-keyboard-response,129,2.0.0,823947,aycrjgc94c,693e609928541f4126f49c4b,693eec4d67b2988724128f33,35,feedbackTrial, ,,,,,,,,,,,,,,,,,
                    <div style="text-align:center;">
                        <p style="color:red; font-size:24px;">Incorrect</p><p>You still have 33 points.</p>
                        <p> Press any key to continue. </p>
                    </div>
                    
,,html-keyboard-response,130,2.0.0,827230,aycrjgc94c,693e609928541f4126f49c4b,693eec4d67b2988724128f33,35,socialPredictionGame,,,,{"R":10,"P":5,"S":0,"T":12},0,12,10,5,PD,Green,def,F.A.,opt_inv,coop,7,0,3281.099999964237,
,921,html-keyboard-response,131,2.0.0,828152,aycrjgc94c,693e609928541f4126f49c4b,693eec4d67b2988724128f33,35,feedbackTrial, ,,,,,,,,,,,,,,,,,
                    <div style="text-align:center;">
                        <p style="color:red; font-size:24px;">Incorrect</p><p>You still have 33 points.</p>
                        <p> Press any key to continue. </p>
                    </div>
                    
,,html-keyboard-response,132,2.0.0,834228,aycrjgc94c,693e609928541f4126f49c4b,693eec4d67b2988724128f33,35,socialPredictionGame,,,,{"R":10,"P":5,"S":0,"T":5},0,5,10,5,SH,Blue,coop,F.A.,opt_inv,def,6,0,6073.900000035763,
,1210,html-keyboard-response,133,2.0.0,835439,aycrjgc94c,693e609928541f4126f49c4b,693eec4d67b2988724128f33,35,feedbackTrial, ,,,,,,,,,,,,,,,,,
                    <div style="text-align:center;">
                        <p style="color:red; font-size:24px;">Incorrect</p><p>You still have 33 points.</p>
                        <p> Press any key to continue. </p>
                    </div>
                    
,,html-keyboard-response,134,2.0.0,840241,aycrjgc94c,693e609928541f4126f49c4b,693eec4d67b2988724128f33,35,socialPredictionGame,,,,{"R":10,"P":5,"S":7,"T":5},7,5,10,5,HG,Blue,coop,F.A.,opt_inv,def,6,0,4800.400000035763,
,1024,html-keyboard-response,135,2.0.0,841267,aycrjgc94c,693e609928541f4126f49c4b,693eec4d67b2988724128f33,35,feedbackTrial, ,,,,,,,,,,,,,,,,,
                    <div style="text-align:center;">
                        <p style="color:red; font-size:24px;">Incorrect</p><p>You still have 33 points.</p>
                        <p> Press any key to continue. </p>
                    </div>
                    
,,html-keyboard-response,136,2.0.0,844275,aycrjgc94c,693e609928541f4126f49c4b,693eec4d67b2988724128f33,35,socialPredictionGame,,,,{"R":10,"P":5,"S":10,"T":8},10,8,10,5,HG,Green,def,F.A.,opt_inv,def,7,1,3006.899999976158,
,1098,html-keyboard-response,137,2.0.0,845374,aycrjgc94c,693e609928541f4126f49c4b,693eec4d67b2988724128f33,35,feedbackTrial, ,,,,,,,,,,,,,,,,,
                    <div style="text-align:center;">
                        <p style="color:green; font-size:24px;">Correct!</p><p>You now have 34 points.</p>
                        <p> Press any key to continue. </p>
                    </div>
                    
,,html-keyboard-response,138,2.0.0,848539,aycrjgc94c,693e609928541f4126f49c4b,693eec4d67b2988724128f33,35,socialPredictionGame,,,,{"R":10,"P":5,"S":3,"T":12},3,12,10,5,PD,Blue,coop,F.A.,opt_inv,coop,5,1,3163,
,1447,html-keyboard-response,139,2.0.0,849987,aycrjgc94c,693e609928541f4126f49c4b,693eec4d67b2988724128f33,35,feedbackTrial, ,,,,,,,,,,,,,,,,,
                    <div style="text-align:center;">
                        <p style="color:green; font-size:24px;">Correct!</p><p>You now have 35 points.</p>
                        <p> Press any key to continue. </p>
                    </div>
                    
,,html-keyboard-response,140,2.0.0,858311,aycrjgc94c,693e609928541f4126f49c4b,693eec4d67b2988724128f33,35,socialPredictionGame,,,,{"R":10,"P":5,"S":10,"T":5},10,5,10,5,HG,Blue,coop,F.A.,opt_inv,def,7,0,8321.899999976158,
,1362,html-keyboard-response,141,2.0.0,859674,aycrjgc94c,693e609928541f4126f49c4b,693eec4d67b2988724128f33,35,feedbackTrial, ,,,,,,,,,,,,,,,,,
                    <div style="text-align:center;">
                        <p style="color:red; font-size:24px;">Incorrect</p><p>You still have 35 points.</p>
                        <p> Press any key to continue. </p>
                    </div>
                    
,,html-keyboard-response,142,2.0.0,864191,aycrjgc94c,693e609928541f4126f49c4b,693eec4d67b2988724128f33,35,socialPredictionGame,,,,{"R":10,"P":5,"S":7,"T":15},7,15,10,5,SG,Green,def,F.A.,opt_inv,coop,7,0,4515.099999964237,
,972,html-keyboard-response,143,2.0.0,865165,aycrjgc94c,693e609928541f4126f49c4b,693eec4d67b2988724128f33,35,feedbackTrial, ,,,,,,,,,,,,,,,,,
                    <div style="text-align:center;">
                        <p style="color:red; font-size:24px;">Incorrect</p><p>You still have 35 points.</p>
                        <p> Press any key to continue. </p>
                    </div>
                    
,,html-keyboard-response,144,2.0.0,867628,aycrjgc94c,693e609928541f4126f49c4b,693eec4d67b2988724128f33,35,socialPredictionGame,,,,{"R":10,"P":5,"S":7,"T":12},7,12,10,5,SG,Green,def,F.A.,opt_inv,coop,7,0,2460.7999999523163,
,1041,html-keyboard-response,145,2.0.0,868670,aycrjgc94c,693e609928541f4126f49c4b,693eec4d67b2988724128f33,35,feedbackTrial, ,,,,,,,,,,,,,,,,,
                    <div style="text-align:center;">
                        <p style="color:red; font-size:24px;">Incorrect</p><p>You still have 35 points.</p>
                        <p> Press any key to continue. </p>
                    </div>
                    
,,html-keyboard-response,146,2.0.0,870711,aycrjgc94c,693e609928541f4126f49c4b,693eec4d67b2988724128f33,35,socialPredictionGame,,,,{"R":10,"P":5,"S":10,"T":15},10,15,10,5,SG,Green,def,F.A.,opt_inv,coop,8,0,2038.300000011921,
,1009,html-keyboard-response,147,2.0.0,871721,aycrjgc94c,693e609928541f4126f49c4b,693eec4d67b2988724128f33,35,feedbackTrial, ,,,,,,,,,,,,,,,,,
                    <div style="text-align:center;">
                        <p style="color:red; font-size:24px;">Incorrect</p><p>You still have 35 points.</p>
                        <p> Press any key to continue. </p>
                    </div>
                    
,40693,survey-html-form,148,2.1.0,912416,aycrjgc94c,693e609928541f4126f49c4b,693eec4d67b2988724128f33,35,strategyPrediction,{"strategyPrediction":"targetting the weaker or more predicatable opponent"},,,,,,,,,,,,,,,,,
,5710,survey-html-form,149,2.1.0,918129,aycrjgc94c,693e609928541f4126f49c4b,693eec4d67b2988724128f33,35,demographics,{"age":"34","gender":"Female"},,,,,,,,,,,,,,,,,
,5706,survey-html-form,150,2.1.0,923837,aycrjgc94c,693e609928541f4126f49c4b,693eec4d67b2988724128f33,35,technical,{"technical":"No","feedback":"No"},,,,,,,,,,,,,,,,,
