view_history,rt,trial_type,trial_index,plugin_version,time_elapsed,subjectID,studyID,sessionID,overallBonusPoints,task,response,question_order,success,Matrix,S,T,R,P,GameType,choice,GivenAns,Player,PlayerType,CorrAns,confidence,ScoreNum,time_on_trial,stimulus
"[{""page_index"":0,""viewing_time"":5539},{""page_index"":1,""viewing_time"":11864}]",17403.0,instructions,0,2.1.0,17412,crl6ayhdwz,693e609928541f4126f49c4b,693e77d134c9b5e8c0c4e21d,37,,,,,,,,,,,,,,,,,,,
"[{""page_index"":0,""viewing_time"":39304}]",39304.0,instructions,1,2.1.0,56717,crl6ayhdwz,693e609928541f4126f49c4b,693e77d134c9b5e8c0c4e21d,37,,,,,,,,,,,,,,,,,,,
"[{""page_index"":0,""viewing_time"":4101}]",4101.0,instructions,2,2.1.0,60819,crl6ayhdwz,693e609928541f4126f49c4b,693e77d134c9b5e8c0c4e21d,37,,,,,,,,,,,,,,,,,,,
,9343.0,survey-multi-choice,3,,70167,crl6ayhdwz,693e609928541f4126f49c4b,693e77d134c9b5e8c0c4e21d,37,comprehensionCheck,"{""task"":""Choose the option the anonymized participant chose"",""incentive"":""Yes—they received bonuses based on their performance""}","[0,1]",,,,,,,,,,,,,,,,
,1577.0,fullscreen,4,2.1.0,72763,crl6ayhdwz,693e609928541f4126f49c4b,693e77d134c9b5e8c0c4e21d,37,,,,True,,,,,,,,,,,,,,,
"[{""page_index"":0,""viewing_time"":5177}]",5177.0,instructions,5,2.1.0,77941,crl6ayhdwz,693e609928541f4126f49c4b,693e77d134c9b5e8c0c4e21d,37,,,,,,,,,,,,,,,,,,,
,,html-keyboard-response,6,2.0.0,110419,crl6ayhdwz,693e609928541f4126f49c4b,693e77d134c9b5e8c0c4e21d,37,playOwnGame,,,,"{""R"":10,""P"":5,""S"":0,""T"":12}",0.0,12.0,10.0,5.0,PD,Blue,def,,,,,,,
,,html-keyboard-response,7,2.0.0,118217,crl6ayhdwz,693e609928541f4126f49c4b,693e77d134c9b5e8c0c4e21d,37,playOwnGame,,,,"{""R"":10,""P"":5,""S"":7,""T"":15}",7.0,15.0,10.0,5.0,SG,Blue,def,,,,,,,
,,html-keyboard-response,8,2.0.0,125592,crl6ayhdwz,693e609928541f4126f49c4b,693e77d134c9b5e8c0c4e21d,37,playOwnGame,,,,"{""R"":10,""P"":5,""S"":3,""T"":8}",3.0,8.0,10.0,5.0,SH,Blue,def,,,,,,,
,,html-keyboard-response,9,2.0.0,132631,crl6ayhdwz,693e609928541f4126f49c4b,693e77d134c9b5e8c0c4e21d,37,playOwnGame,,,,"{""R"":10,""P"":5,""S"":10,""T"":8}",10.0,8.0,10.0,5.0,HG,Red,coop,,,,,,,
"[{""page_index"":0,""viewing_time"":1835}]",1835.0,instructions,10,2.1.0,134467,crl6ayhdwz,693e609928541f4126f49c4b,693e77d134c9b5e8c0c4e21d,37,,,,,,,,,,,,,,,,,,,
,,html-keyboard-response,11,2.0.0,146455,crl6ayhdwz,693e609928541f4126f49c4b,693e77d134c9b5e8c0c4e21d,37,socialPredictionGame,,,,"{""R"":10,""P"":5,""S"":0,""T"":5}",0.0,5.0,10.0,5.0,SH,Green,def,E.B.,pess_nat,def,6.0,1.0,11987.100000143051,
,2788.0,html-keyboard-response,12,2.0.0,149244,crl6ayhdwz,693e609928541f4126f49c4b,693e77d134c9b5e8c0c4e21d,37,feedbackTrial,Enter,,,,,,,,,,,,,,,,,"
                    <div style=""text-align:center;"">
                        <p style=""color:green; font-size:24px;"">Correct!</p><p>You now have 1 points.</p>
                        <p> Press any key to continue. </p>
                    </div>
                    "
,,html-keyboard-response,13,2.0.0,154908,crl6ayhdwz,693e609928541f4126f49c4b,693e77d134c9b5e8c0c4e21d,37,socialPredictionGame,,,,"{""R"":10,""P"":5,""S"":0,""T"":12}",0.0,12.0,10.0,5.0,PD,Green,def,E.B.,pess_nat,def,7.0,1.0,5662.599999904633,
,1591.0,html-keyboard-response,14,2.0.0,156499,crl6ayhdwz,693e609928541f4126f49c4b,693e77d134c9b5e8c0c4e21d,37,feedbackTrial, ,,,,,,,,,,,,,,,,,"
                    <div style=""text-align:center;"">
                        <p style=""color:green; font-size:24px;"">Correct!</p><p>You now have 2 points.</p>
                        <p> Press any key to continue. </p>
                    </div>
                    "
,,html-keyboard-response,15,2.0.0,161854,crl6ayhdwz,693e609928541f4126f49c4b,693e77d134c9b5e8c0c4e21d,37,socialPredictionGame,,,,"{""R"":10,""P"":5,""S"":3,""T"":5}",3.0,5.0,10.0,5.0,SH,Green,def,E.B.,pess_nat,def,6.0,1.0,5353.599999904633,
,749.0,html-keyboard-response,16,2.0.0,162603,crl6ayhdwz,693e609928541f4126f49c4b,693e77d134c9b5e8c0c4e21d,37,feedbackTrial, ,,,,,,,,,,,,,,,,,"
                    <div style=""text-align:center;"">
                        <p style=""color:green; font-size:24px;"">Correct!</p><p>You now have 3 points.</p>
                        <p> Press any key to continue. </p>
                    </div>
                    "
,,html-keyboard-response,17,2.0.0,167736,crl6ayhdwz,693e609928541f4126f49c4b,693e77d134c9b5e8c0c4e21d,37,socialPredictionGame,,,,"{""R"":10,""P"":5,""S"":7,""T"":5}",7.0,5.0,10.0,5.0,HG,Purple,coop,E.B.,pess_nat,coop,7.0,1.0,5131.600000143051,
,843.0,html-keyboard-response,18,2.0.0,168579,crl6ayhdwz,693e609928541f4126f49c4b,693e77d134c9b5e8c0c4e21d,37,feedbackTrial, ,,,,,,,,,,,,,,,,,"
                    <div style=""text-align:center;"">
                        <p style=""color:green; font-size:24px;"">Correct!</p><p>You now have 4 points.</p>
                        <p> Press any key to continue. </p>
                    </div>
                    "
,,html-keyboard-response,19,2.0.0,174563,crl6ayhdwz,693e609928541f4126f49c4b,693e77d134c9b5e8c0c4e21d,37,socialPredictionGame,,,,"{""R"":10,""P"":5,""S"":10,""T"":15}",10.0,15.0,10.0,5.0,SG,Purple,coop,E.B.,pess_nat,coop,8.0,1.0,5983.200000047684,
,871.0,html-keyboard-response,20,2.0.0,175435,crl6ayhdwz,693e609928541f4126f49c4b,693e77d134c9b5e8c0c4e21d,37,feedbackTrial, ,,,,,,,,,,,,,,,,,"
                    <div style=""text-align:center;"">
                        <p style=""color:green; font-size:24px;"">Correct!</p><p>You now have 5 points.</p>
                        <p> Press any key to continue. </p>
                    </div>
                    "
,,html-keyboard-response,21,2.0.0,180714,crl6ayhdwz,693e609928541f4126f49c4b,693e77d134c9b5e8c0c4e21d,37,socialPredictionGame,,,,"{""R"":10,""P"":5,""S"":0,""T"":8}",0.0,8.0,10.0,5.0,SH,Green,def,E.B.,pess_nat,def,8.0,1.0,5277.700000047684,
,697.0,html-keyboard-response,22,2.0.0,181411,crl6ayhdwz,693e609928541f4126f49c4b,693e77d134c9b5e8c0c4e21d,37,feedbackTrial, ,,,,,,,,,,,,,,,,,"
                    <div style=""text-align:center;"">
                        <p style=""color:green; font-size:24px;"">Correct!</p><p>You now have 6 points.</p>
                        <p> Press any key to continue. </p>
                    </div>
                    "
,,html-keyboard-response,23,2.0.0,188579,crl6ayhdwz,693e609928541f4126f49c4b,693e77d134c9b5e8c0c4e21d,37,socialPredictionGame,,,,"{""R"":10,""P"":5,""S"":3,""T"":15}",3.0,15.0,10.0,5.0,PD,Green,def,E.B.,pess_nat,def,9.0,1.0,7167.300000190735,
,991.0,html-keyboard-response,24,2.0.0,189571,crl6ayhdwz,693e609928541f4126f49c4b,693e77d134c9b5e8c0c4e21d,37,feedbackTrial, ,,,,,,,,,,,,,,,,,"
                    <div style=""text-align:center;"">
                        <p style=""color:green; font-size:24px;"">Correct!</p><p>You now have 7 points.</p>
                        <p> Press any key to continue. </p>
                    </div>
                    "
,,html-keyboard-response,25,2.0.0,194549,crl6ayhdwz,693e609928541f4126f49c4b,693e77d134c9b5e8c0c4e21d,37,socialPredictionGame,,,,"{""R"":10,""P"":5,""S"":7,""T"":12}",7.0,12.0,10.0,5.0,SG,Green,def,E.B.,pess_nat,coop,7.0,0.0,4977.5,
,1302.0,html-keyboard-response,26,2.0.0,195852,crl6ayhdwz,693e609928541f4126f49c4b,693e77d134c9b5e8c0c4e21d,37,feedbackTrial, ,,,,,,,,,,,,,,,,,"
                    <div style=""text-align:center;"">
                        <p style=""color:red; font-size:24px;"">Incorrect</p><p>You still have 7 points.</p>
                        <p> Press any key to continue. </p>
                    </div>
                    "
,,html-keyboard-response,27,2.0.0,202214,crl6ayhdwz,693e609928541f4126f49c4b,693e77d134c9b5e8c0c4e21d,37,socialPredictionGame,,,,"{""R"":10,""P"":5,""S"":3,""T"":8}",3.0,8.0,10.0,5.0,SH,Green,def,E.B.,pess_nat,def,7.0,1.0,6361.200000047684,
,744.0,html-keyboard-response,28,2.0.0,202958,crl6ayhdwz,693e609928541f4126f49c4b,693e77d134c9b5e8c0c4e21d,37,feedbackTrial, ,,,,,,,,,,,,,,,,,"
                    <div style=""text-align:center;"">
                        <p style=""color:green; font-size:24px;"">Correct!</p><p>You now have 8 points.</p>
                        <p> Press any key to continue. </p>
                    </div>
                    "
,,html-keyboard-response,29,2.0.0,208150,crl6ayhdwz,693e609928541f4126f49c4b,693e77d134c9b5e8c0c4e21d,37,socialPredictionGame,,,,"{""R"":10,""P"":5,""S"":10,""T"":8}",10.0,8.0,10.0,5.0,HG,Purple,coop,E.B.,pess_nat,coop,9.0,1.0,5189.799999952316,
,742.0,html-keyboard-response,30,2.0.0,208893,crl6ayhdwz,693e609928541f4126f49c4b,693e77d134c9b5e8c0c4e21d,37,feedbackTrial, ,,,,,,,,,,,,,,,,,"
                    <div style=""text-align:center;"">
                        <p style=""color:green; font-size:24px;"">Correct!</p><p>You now have 9 points.</p>
                        <p> Press any key to continue. </p>
                    </div>
                    "
,,html-keyboard-response,31,2.0.0,215150,crl6ayhdwz,693e609928541f4126f49c4b,693e77d134c9b5e8c0c4e21d,37,socialPredictionGame,,,,"{""R"":10,""P"":5,""S"":3,""T"":12}",3.0,12.0,10.0,5.0,PD,Green,def,E.B.,pess_nat,def,9.0,1.0,6252.900000095367,
,765.0,html-keyboard-response,32,2.0.0,215916,crl6ayhdwz,693e609928541f4126f49c4b,693e77d134c9b5e8c0c4e21d,37,feedbackTrial, ,,,,,,,,,,,,,,,,,"
                    <div style=""text-align:center;"">
                        <p style=""color:green; font-size:24px;"">Correct!</p><p>You now have 10 points.</p>
                        <p> Press any key to continue. </p>
                    </div>
                    "
,,html-keyboard-response,33,2.0.0,226222,crl6ayhdwz,693e609928541f4126f49c4b,693e77d134c9b5e8c0c4e21d,37,socialPredictionGame,,,,"{""R"":10,""P"":5,""S"":7,""T"":8}",7.0,8.0,10.0,5.0,HG,Purple,coop,E.B.,pess_nat,coop,10.0,1.0,10305.200000047684,
,694.0,html-keyboard-response,34,2.0.0,226917,crl6ayhdwz,693e609928541f4126f49c4b,693e77d134c9b5e8c0c4e21d,37,feedbackTrial, ,,,,,,,,,,,,,,,,,"
                    <div style=""text-align:center;"">
                        <p style=""color:green; font-size:24px;"">Correct!</p><p>You now have 11 points.</p>
                        <p> Press any key to continue. </p>
                    </div>
                    "
,,html-keyboard-response,35,2.0.0,232455,crl6ayhdwz,693e609928541f4126f49c4b,693e77d134c9b5e8c0c4e21d,37,socialPredictionGame,,,,"{""R"":10,""P"":5,""S"":0,""T"":15}",0.0,15.0,10.0,5.0,PD,Green,def,E.B.,pess_nat,def,8.0,1.0,5536.299999952316,
,636.0,html-keyboard-response,36,2.0.0,233092,crl6ayhdwz,693e609928541f4126f49c4b,693e77d134c9b5e8c0c4e21d,37,feedbackTrial, ,,,,,,,,,,,,,,,,,"
                    <div style=""text-align:center;"">
                        <p style=""color:green; font-size:24px;"">Correct!</p><p>You now have 12 points.</p>
                        <p> Press any key to continue. </p>
                    </div>
                    "
,,html-keyboard-response,37,2.0.0,238355,crl6ayhdwz,693e609928541f4126f49c4b,693e77d134c9b5e8c0c4e21d,37,socialPredictionGame,,,,"{""R"":10,""P"":5,""S"":10,""T"":12}",10.0,12.0,10.0,5.0,SG,Purple,coop,E.B.,pess_nat,coop,8.0,1.0,5261.700000047684,
,603.0,html-keyboard-response,38,2.0.0,238958,crl6ayhdwz,693e609928541f4126f49c4b,693e77d134c9b5e8c0c4e21d,37,feedbackTrial, ,,,,,,,,,,,,,,,,,"
                    <div style=""text-align:center;"">
                        <p style=""color:green; font-size:24px;"">Correct!</p><p>You now have 13 points.</p>
                        <p> Press any key to continue. </p>
                    </div>
                    "
,,html-keyboard-response,39,2.0.0,243956,crl6ayhdwz,693e609928541f4126f49c4b,693e77d134c9b5e8c0c4e21d,37,socialPredictionGame,,,,"{""R"":10,""P"":5,""S"":10,""T"":5}",10.0,5.0,10.0,5.0,HG,Purple,coop,E.B.,pess_nat,coop,10.0,1.0,4995.299999952316,
,623.0,html-keyboard-response,40,2.0.0,244579,crl6ayhdwz,693e609928541f4126f49c4b,693e77d134c9b5e8c0c4e21d,37,feedbackTrial, ,,,,,,,,,,,,,,,,,"
                    <div style=""text-align:center;"">
                        <p style=""color:green; font-size:24px;"">Correct!</p><p>You now have 14 points.</p>
                        <p> Press any key to continue. </p>
                    </div>
                    "
,,html-keyboard-response,41,2.0.0,252824,crl6ayhdwz,693e609928541f4126f49c4b,693e77d134c9b5e8c0c4e21d,37,socialPredictionGame,,,,"{""R"":10,""P"":5,""S"":7,""T"":15}",7.0,15.0,10.0,5.0,SG,Green,def,E.B.,pess_nat,coop,4.0,0.0,8243.700000047684,
,691.0,html-keyboard-response,42,2.0.0,253515,crl6ayhdwz,693e609928541f4126f49c4b,693e77d134c9b5e8c0c4e21d,37,feedbackTrial, ,,,,,,,,,,,,,,,,,"
                    <div style=""text-align:center;"">
                        <p style=""color:red; font-size:24px;"">Incorrect</p><p>You still have 14 points.</p>
                        <p> Press any key to continue. </p>
                    </div>
                    "
,12940.0,survey-html-form,43,2.1.0,266455,crl6ayhdwz,693e609928541f4126f49c4b,693e77d134c9b5e8c0c4e21d,37,strategyPrediction,"{""strategyPrediction"":""It was to mostly choose the safe option.""}",,,,,,,,,,,,,,,,,
"[{""page_index"":0,""viewing_time"":3288}]",3288.0,instructions,44,2.1.0,269744,crl6ayhdwz,693e609928541f4126f49c4b,693e77d134c9b5e8c0c4e21d,37,,,,,,,,,,,,,,,,,,,
,,html-keyboard-response,45,2.0.0,276308,crl6ayhdwz,693e609928541f4126f49c4b,693e77d134c9b5e8c0c4e21d,37,socialPredictionGame,,,,"{""R"":10,""P"":5,""S"":0,""T"":5}",0.0,5.0,10.0,5.0,SH,Purple,def,G.P.,pess_inv,coop,5.0,0.0,6563.299999952316,
,744.0,html-keyboard-response,46,2.0.0,277053,crl6ayhdwz,693e609928541f4126f49c4b,693e77d134c9b5e8c0c4e21d,37,feedbackTrial, ,,,,,,,,,,,,,,,,,"
                    <div style=""text-align:center;"">
                        <p style=""color:red; font-size:24px;"">Incorrect</p><p>You still have 14 points.</p>
                        <p> Press any key to continue. </p>
                    </div>
                    "
,,html-keyboard-response,47,2.0.0,281784,crl6ayhdwz,693e609928541f4126f49c4b,693e77d134c9b5e8c0c4e21d,37,socialPredictionGame,,,,"{""R"":10,""P"":5,""S"":3,""T"":5}",3.0,5.0,10.0,5.0,SH,Blue,coop,G.P.,pess_inv,coop,7.0,1.0,4729.300000190735,
,564.0,html-keyboard-response,48,2.0.0,282349,crl6ayhdwz,693e609928541f4126f49c4b,693e77d134c9b5e8c0c4e21d,37,feedbackTrial, ,,,,,,,,,,,,,,,,,"
                    <div style=""text-align:center;"">
                        <p style=""color:green; font-size:24px;"">Correct!</p><p>You now have 15 points.</p>
                        <p> Press any key to continue. </p>
                    </div>
                    "
,,html-keyboard-response,49,2.0.0,286760,crl6ayhdwz,693e609928541f4126f49c4b,693e77d134c9b5e8c0c4e21d,37,socialPredictionGame,,,,"{""R"":10,""P"":5,""S"":3,""T"":8}",3.0,8.0,10.0,5.0,SH,Blue,coop,G.P.,pess_inv,coop,7.0,1.0,4409.0,
,556.0,html-keyboard-response,50,2.0.0,287317,crl6ayhdwz,693e609928541f4126f49c4b,693e77d134c9b5e8c0c4e21d,37,feedbackTrial, ,,,,,,,,,,,,,,,,,"
                    <div style=""text-align:center;"">
                        <p style=""color:green; font-size:24px;"">Correct!</p><p>You now have 16 points.</p>
                        <p> Press any key to continue. </p>
                    </div>
                    "
,,html-keyboard-response,51,2.0.0,292838,crl6ayhdwz,693e609928541f4126f49c4b,693e77d134c9b5e8c0c4e21d,37,socialPredictionGame,,,,"{""R"":10,""P"":5,""S"":3,""T"":12}",3.0,12.0,10.0,5.0,PD,Purple,def,G.P.,pess_inv,coop,8.0,0.0,5518.900000095367,
,1342.0,html-keyboard-response,52,2.0.0,294181,crl6ayhdwz,693e609928541f4126f49c4b,693e77d134c9b5e8c0c4e21d,37,feedbackTrial, ,,,,,,,,,,,,,,,,,"
                    <div style=""text-align:center;"">
                        <p style=""color:red; font-size:24px;"">Incorrect</p><p>You still have 16 points.</p>
                        <p> Press any key to continue. </p>
                    </div>
                    "
,,html-keyboard-response,53,2.0.0,300658,crl6ayhdwz,693e609928541f4126f49c4b,693e77d134c9b5e8c0c4e21d,37,socialPredictionGame,,,,"{""R"":10,""P"":5,""S"":7,""T"":5}",7.0,5.0,10.0,5.0,HG,Blue,coop,G.P.,pess_inv,def,8.0,0.0,6474.900000095367,
,1634.0,html-keyboard-response,54,2.0.0,302293,crl6ayhdwz,693e609928541f4126f49c4b,693e77d134c9b5e8c0c4e21d,37,feedbackTrial, ,,,,,,,,,,,,,,,,,"
                    <div style=""text-align:center;"">
                        <p style=""color:red; font-size:24px;"">Incorrect</p><p>You still have 16 points.</p>
                        <p> Press any key to continue. </p>
                    </div>
                    "
,,html-keyboard-response,55,2.0.0,308300,crl6ayhdwz,693e609928541f4126f49c4b,693e77d134c9b5e8c0c4e21d,37,socialPredictionGame,,,,"{""R"":10,""P"":5,""S"":0,""T"":15}",0.0,15.0,10.0,5.0,PD,Purple,def,G.P.,pess_inv,coop,9.0,0.0,6004.799999952316,
,736.0,html-keyboard-response,56,2.0.0,309037,crl6ayhdwz,693e609928541f4126f49c4b,693e77d134c9b5e8c0c4e21d,37,feedbackTrial, ,,,,,,,,,,,,,,,,,"
                    <div style=""text-align:center;"">
                        <p style=""color:red; font-size:24px;"">Incorrect</p><p>You still have 16 points.</p>
                        <p> Press any key to continue. </p>
                    </div>
                    "
,,html-keyboard-response,57,2.0.0,317034,crl6ayhdwz,693e609928541f4126f49c4b,693e77d134c9b5e8c0c4e21d,37,socialPredictionGame,,,,"{""R"":10,""P"":5,""S"":10,""T"":12}",10.0,12.0,10.0,5.0,SG,Blue,coop,G.P.,pess_inv,def,5.0,0.0,7995.0,
,594.0,html-keyboard-response,58,2.0.0,317628,crl6ayhdwz,693e609928541f4126f49c4b,693e77d134c9b5e8c0c4e21d,37,feedbackTrial, ,,,,,,,,,,,,,,,,,"
                    <div style=""text-align:center;"">
                        <p style=""color:red; font-size:24px;"">Incorrect</p><p>You still have 16 points.</p>
                        <p> Press any key to continue. </p>
                    </div>
                    "
,,html-keyboard-response,59,2.0.0,321182,crl6ayhdwz,693e609928541f4126f49c4b,693e77d134c9b5e8c0c4e21d,37,socialPredictionGame,,,,"{""R"":10,""P"":5,""S"":0,""T"":8}",0.0,8.0,10.0,5.0,SH,Purple,def,G.P.,pess_inv,coop,6.0,0.0,3553.0,
,574.0,html-keyboard-response,60,2.0.0,321757,crl6ayhdwz,693e609928541f4126f49c4b,693e77d134c9b5e8c0c4e21d,37,feedbackTrial, ,,,,,,,,,,,,,,,,,"
                    <div style=""text-align:center;"">
                        <p style=""color:red; font-size:24px;"">Incorrect</p><p>You still have 16 points.</p>
                        <p> Press any key to continue. </p>
                    </div>
                    "
,,html-keyboard-response,61,2.0.0,325628,crl6ayhdwz,693e609928541f4126f49c4b,693e77d134c9b5e8c0c4e21d,37,socialPredictionGame,,,,"{""R"":10,""P"":5,""S"":3,""T"":15}",3.0,15.0,10.0,5.0,PD,Purple,def,G.P.,pess_inv,coop,7.0,0.0,3868.799999952316,
,552.0,html-keyboard-response,62,2.0.0,326181,crl6ayhdwz,693e609928541f4126f49c4b,693e77d134c9b5e8c0c4e21d,37,feedbackTrial, ,,,,,,,,,,,,,,,,,"
                    <div style=""text-align:center;"">
                        <p style=""color:red; font-size:24px;"">Incorrect</p><p>You still have 16 points.</p>
                        <p> Press any key to continue. </p>
                    </div>
                    "
,,html-keyboard-response,63,2.0.0,329924,crl6ayhdwz,693e609928541f4126f49c4b,693e77d134c9b5e8c0c4e21d,37,socialPredictionGame,,,,"{""R"":10,""P"":5,""S"":7,""T"":12}",7.0,12.0,10.0,5.0,SG,Blue,coop,G.P.,pess_inv,def,4.0,0.0,3741.0,
,535.0,html-keyboard-response,64,2.0.0,330459,crl6ayhdwz,693e609928541f4126f49c4b,693e77d134c9b5e8c0c4e21d,37,feedbackTrial, ,,,,,,,,,,,,,,,,,"
                    <div style=""text-align:center;"">
                        <p style=""color:red; font-size:24px;"">Incorrect</p><p>You still have 16 points.</p>
                        <p> Press any key to continue. </p>
                    </div>
                    "
,,html-keyboard-response,65,2.0.0,335800,crl6ayhdwz,693e609928541f4126f49c4b,693e77d134c9b5e8c0c4e21d,37,socialPredictionGame,,,,"{""R"":10,""P"":5,""S"":7,""T"":15}",7.0,15.0,10.0,5.0,SG,Purple,def,G.P.,pess_inv,def,3.0,1.0,5339.700000047684,
,1084.0,html-keyboard-response,66,2.0.0,336885,crl6ayhdwz,693e609928541f4126f49c4b,693e77d134c9b5e8c0c4e21d,37,feedbackTrial, ,,,,,,,,,,,,,,,,,"
                    <div style=""text-align:center;"">
                        <p style=""color:green; font-size:24px;"">Correct!</p><p>You now have 17 points.</p>
                        <p> Press any key to continue. </p>
                    </div>
                    "
,,html-keyboard-response,67,2.0.0,341431,crl6ayhdwz,693e609928541f4126f49c4b,693e77d134c9b5e8c0c4e21d,37,socialPredictionGame,,,,"{""R"":10,""P"":5,""S"":10,""T"":5}",10.0,5.0,10.0,5.0,HG,Blue,coop,G.P.,pess_inv,def,6.0,0.0,4544.400000095367,
,789.0,html-keyboard-response,68,2.0.0,342221,crl6ayhdwz,693e609928541f4126f49c4b,693e77d134c9b5e8c0c4e21d,37,feedbackTrial, ,,,,,,,,,,,,,,,,,"
                    <div style=""text-align:center;"">
                        <p style=""color:red; font-size:24px;"">Incorrect</p><p>You still have 17 points.</p>
                        <p> Press any key to continue. </p>
                    </div>
                    "
,,html-keyboard-response,69,2.0.0,347948,crl6ayhdwz,693e609928541f4126f49c4b,693e77d134c9b5e8c0c4e21d,37,socialPredictionGame,,,,"{""R"":10,""P"":5,""S"":10,""T"":15}",10.0,15.0,10.0,5.0,SG,Purple,def,G.P.,pess_inv,def,5.0,1.0,5724.900000095367,
,671.0,html-keyboard-response,70,2.0.0,348620,crl6ayhdwz,693e609928541f4126f49c4b,693e77d134c9b5e8c0c4e21d,37,feedbackTrial, ,,,,,,,,,,,,,,,,,"
                    <div style=""text-align:center;"">
                        <p style=""color:green; font-size:24px;"">Correct!</p><p>You now have 18 points.</p>
                        <p> Press any key to continue. </p>
                    </div>
                    "
,,html-keyboard-response,71,2.0.0,352439,crl6ayhdwz,693e609928541f4126f49c4b,693e77d134c9b5e8c0c4e21d,37,socialPredictionGame,,,,"{""R"":10,""P"":5,""S"":7,""T"":8}",7.0,8.0,10.0,5.0,HG,Purple,def,G.P.,pess_inv,def,5.0,1.0,3819.299999952316,
,589.0,html-keyboard-response,72,2.0.0,353029,crl6ayhdwz,693e609928541f4126f49c4b,693e77d134c9b5e8c0c4e21d,37,feedbackTrial, ,,,,,,,,,,,,,,,,,"
                    <div style=""text-align:center;"">
                        <p style=""color:green; font-size:24px;"">Correct!</p><p>You now have 19 points.</p>
                        <p> Press any key to continue. </p>
                    </div>
                    "
,,html-keyboard-response,73,2.0.0,356440,crl6ayhdwz,693e609928541f4126f49c4b,693e77d134c9b5e8c0c4e21d,37,socialPredictionGame,,,,"{""R"":10,""P"":5,""S"":10,""T"":8}",10.0,8.0,10.0,5.0,HG,Purple,def,G.P.,pess_inv,def,6.0,1.0,3408.899999856949,
,605.0,html-keyboard-response,74,2.0.0,357045,crl6ayhdwz,693e609928541f4126f49c4b,693e77d134c9b5e8c0c4e21d,37,feedbackTrial, ,,,,,,,,,,,,,,,,,"
                    <div style=""text-align:center;"">
                        <p style=""color:green; font-size:24px;"">Correct!</p><p>You now have 20 points.</p>
                        <p> Press any key to continue. </p>
                    </div>
                    "
,,html-keyboard-response,75,2.0.0,360932,crl6ayhdwz,693e609928541f4126f49c4b,693e77d134c9b5e8c0c4e21d,37,socialPredictionGame,,,,"{""R"":10,""P"":5,""S"":0,""T"":12}",0.0,12.0,10.0,5.0,PD,Blue,coop,G.P.,pess_inv,coop,6.0,1.0,3885.0,
,567.0,html-keyboard-response,76,2.0.0,361499,crl6ayhdwz,693e609928541f4126f49c4b,693e77d134c9b5e8c0c4e21d,37,feedbackTrial, ,,,,,,,,,,,,,,,,,"
                    <div style=""text-align:center;"">
                        <p style=""color:green; font-size:24px;"">Correct!</p><p>You now have 21 points.</p>
                        <p> Press any key to continue. </p>
                    </div>
                    "
,11298.0,survey-html-form,77,2.1.0,372798,crl6ayhdwz,693e609928541f4126f49c4b,693e77d134c9b5e8c0c4e21d,37,strategyPrediction,"{""strategyPrediction"":""It was to choose the worse option generally.""}",,,,,,,,,,,,,,,,,
"[{""page_index"":0,""viewing_time"":2362}]",2362.0,instructions,78,2.1.0,375162,crl6ayhdwz,693e609928541f4126f49c4b,693e77d134c9b5e8c0c4e21d,37,,,,,,,,,,,,,,,,,,,
,,html-keyboard-response,79,2.0.0,380218,crl6ayhdwz,693e609928541f4126f49c4b,693e77d134c9b5e8c0c4e21d,37,socialPredictionGame,,,,"{""R"":10,""P"":5,""S"":0,""T"":5}",0.0,5.0,10.0,5.0,SH,Purple,def,F.A.,opt_inv,def,7.0,1.0,5055.699999809265,
,731.0,html-keyboard-response,80,2.0.0,380949,crl6ayhdwz,693e609928541f4126f49c4b,693e77d134c9b5e8c0c4e21d,37,feedbackTrial, ,,,,,,,,,,,,,,,,,"
                    <div style=""text-align:center;"">
                        <p style=""color:green; font-size:24px;"">Correct!</p><p>You now have 22 points.</p>
                        <p> Press any key to continue. </p>
                    </div>
                    "
,,html-keyboard-response,81,2.0.0,384796,crl6ayhdwz,693e609928541f4126f49c4b,693e77d134c9b5e8c0c4e21d,37,socialPredictionGame,,,,"{""R"":10,""P"":5,""S"":3,""T"":5}",3.0,5.0,10.0,5.0,SH,Red,coop,F.A.,opt_inv,def,6.0,0.0,3844.699999809265,
,631.0,html-keyboard-response,82,2.0.0,385427,crl6ayhdwz,693e609928541f4126f49c4b,693e77d134c9b5e8c0c4e21d,37,feedbackTrial, ,,,,,,,,,,,,,,,,,"
                    <div style=""text-align:center;"">
                        <p style=""color:red; font-size:24px;"">Incorrect</p><p>You still have 22 points.</p>
                        <p> Press any key to continue. </p>
                    </div>
                    "
,,html-keyboard-response,83,2.0.0,390411,crl6ayhdwz,693e609928541f4126f49c4b,693e77d134c9b5e8c0c4e21d,37,socialPredictionGame,,,,"{""R"":10,""P"":5,""S"":7,""T"":12}",7.0,12.0,10.0,5.0,SG,Purple,def,F.A.,opt_inv,coop,6.0,0.0,4983.200000047684,
,553.0,html-keyboard-response,84,2.0.0,390965,crl6ayhdwz,693e609928541f4126f49c4b,693e77d134c9b5e8c0c4e21d,37,feedbackTrial, ,,,,,,,,,,,,,,,,,"
                    <div style=""text-align:center;"">
                        <p style=""color:red; font-size:24px;"">Incorrect</p><p>You still have 22 points.</p>
                        <p> Press any key to continue. </p>
                    </div>
                    "
,,html-keyboard-response,85,2.0.0,394960,crl6ayhdwz,693e609928541f4126f49c4b,693e77d134c9b5e8c0c4e21d,37,socialPredictionGame,,,,"{""R"":10,""P"":5,""S"":3,""T"":12}",3.0,12.0,10.0,5.0,PD,Purple,def,F.A.,opt_inv,coop,4.0,0.0,3992.899999856949,
,571.0,html-keyboard-response,86,2.0.0,395531,crl6ayhdwz,693e609928541f4126f49c4b,693e77d134c9b5e8c0c4e21d,37,feedbackTrial, ,,,,,,,,,,,,,,,,,"
                    <div style=""text-align:center;"">
                        <p style=""color:red; font-size:24px;"">Incorrect</p><p>You still have 22 points.</p>
                        <p> Press any key to continue. </p>
                    </div>
                    "
,,html-keyboard-response,87,2.0.0,399326,crl6ayhdwz,693e609928541f4126f49c4b,693e77d134c9b5e8c0c4e21d,37,socialPredictionGame,,,,"{""R"":10,""P"":5,""S"":0,""T"":8}",0.0,8.0,10.0,5.0,SH,Purple,def,F.A.,opt_inv,def,6.0,1.0,3793.900000095367,
,654.0,html-keyboard-response,88,2.0.0,399981,crl6ayhdwz,693e609928541f4126f49c4b,693e77d134c9b5e8c0c4e21d,37,feedbackTrial, ,,,,,,,,,,,,,,,,,"
                    <div style=""text-align:center;"">
                        <p style=""color:green; font-size:24px;"">Correct!</p><p>You now have 23 points.</p>
                        <p> Press any key to continue. </p>
                    </div>
                    "
,,html-keyboard-response,89,2.0.0,404397,crl6ayhdwz,693e609928541f4126f49c4b,693e77d134c9b5e8c0c4e21d,37,socialPredictionGame,,,,"{""R"":10,""P"":5,""S"":3,""T"":15}",3.0,15.0,10.0,5.0,PD,Purple,def,F.A.,opt_inv,coop,7.0,0.0,4414.399999856949,
,770.0,html-keyboard-response,90,2.0.0,405168,crl6ayhdwz,693e609928541f4126f49c4b,693e77d134c9b5e8c0c4e21d,37,feedbackTrial, ,,,,,,,,,,,,,,,,,"
                    <div style=""text-align:center;"">
                        <p style=""color:red; font-size:24px;"">Incorrect</p><p>You still have 23 points.</p>
                        <p> Press any key to continue. </p>
                    </div>
                    "
,,html-keyboard-response,91,2.0.0,409124,crl6ayhdwz,693e609928541f4126f49c4b,693e77d134c9b5e8c0c4e21d,37,socialPredictionGame,,,,"{""R"":10,""P"":5,""S"":3,""T"":8}",3.0,8.0,10.0,5.0,SH,Red,coop,F.A.,opt_inv,def,4.0,0.0,3955.699999809265,
,584.0,html-keyboard-response,92,2.0.0,409709,crl6ayhdwz,693e609928541f4126f49c4b,693e77d134c9b5e8c0c4e21d,37,feedbackTrial, ,,,,,,,,,,,,,,,,,"
                    <div style=""text-align:center;"">
                        <p style=""color:red; font-size:24px;"">Incorrect</p><p>You still have 23 points.</p>
                        <p> Press any key to continue. </p>
                    </div>
                    "
,,html-keyboard-response,93,2.0.0,413366,crl6ayhdwz,693e609928541f4126f49c4b,693e77d134c9b5e8c0c4e21d,37,socialPredictionGame,,,,"{""R"":10,""P"":5,""S"":10,""T"":15}",10.0,15.0,10.0,5.0,SG,Red,coop,F.A.,opt_inv,coop,6.0,1.0,3654.900000095367,
,678.0,html-keyboard-response,94,2.0.0,414045,crl6ayhdwz,693e609928541f4126f49c4b,693e77d134c9b5e8c0c4e21d,37,feedbackTrial, ,,,,,,,,,,,,,,,,,"
                    <div style=""text-align:center;"">
                        <p style=""color:green; font-size:24px;"">Correct!</p><p>You now have 24 points.</p>
                        <p> Press any key to continue. </p>
                    </div>
                    "
,,html-keyboard-response,95,2.0.0,417578,crl6ayhdwz,693e609928541f4126f49c4b,693e77d134c9b5e8c0c4e21d,37,socialPredictionGame,,,,"{""R"":10,""P"":5,""S"":10,""T"":12}",10.0,12.0,10.0,5.0,SG,Red,coop,F.A.,opt_inv,coop,7.0,1.0,3531.399999856949,
,577.0,html-keyboard-response,96,2.0.0,418156,crl6ayhdwz,693e609928541f4126f49c4b,693e77d134c9b5e8c0c4e21d,37,feedbackTrial, ,,,,,,,,,,,,,,,,,"
                    <div style=""text-align:center;"">
                        <p style=""color:green; font-size:24px;"">Correct!</p><p>You now have 25 points.</p>
                        <p> Press any key to continue. </p>
                    </div>
                    "
,,html-keyboard-response,97,2.0.0,421476,crl6ayhdwz,693e609928541f4126f49c4b,693e77d134c9b5e8c0c4e21d,37,socialPredictionGame,,,,"{""R"":10,""P"":5,""S"":7,""T"":15}",7.0,15.0,10.0,5.0,SG,Red,coop,F.A.,opt_inv,coop,6.0,1.0,3319.399999856949,
,577.0,html-keyboard-response,98,2.0.0,422053,crl6ayhdwz,693e609928541f4126f49c4b,693e77d134c9b5e8c0c4e21d,37,feedbackTrial, ,,,,,,,,,,,,,,,,,"
                    <div style=""text-align:center;"">
                        <p style=""color:green; font-size:24px;"">Correct!</p><p>You now have 26 points.</p>
                        <p> Press any key to continue. </p>
                    </div>
                    "
,,html-keyboard-response,99,2.0.0,425084,crl6ayhdwz,693e609928541f4126f49c4b,693e77d134c9b5e8c0c4e21d,37,socialPredictionGame,,,,"{""R"":10,""P"":5,""S"":10,""T"":8}",10.0,8.0,10.0,5.0,HG,Red,coop,F.A.,opt_inv,def,8.0,0.0,3028.599999904633,
,2479.0,html-keyboard-response,100,2.0.0,427564,crl6ayhdwz,693e609928541f4126f49c4b,693e77d134c9b5e8c0c4e21d,37,feedbackTrial, ,,,,,,,,,,,,,,,,,"
                    <div style=""text-align:center;"">
                        <p style=""color:red; font-size:24px;"">Incorrect</p><p>You still have 26 points.</p>
                        <p> Press any key to continue. </p>
                    </div>
                    "
,,html-keyboard-response,101,2.0.0,431288,crl6ayhdwz,693e609928541f4126f49c4b,693e77d134c9b5e8c0c4e21d,37,socialPredictionGame,,,,"{""R"":10,""P"":5,""S"":7,""T"":5}",7.0,5.0,10.0,5.0,HG,Red,coop,F.A.,opt_inv,def,6.0,0.0,3723.700000047684,
,635.0,html-keyboard-response,102,2.0.0,431924,crl6ayhdwz,693e609928541f4126f49c4b,693e77d134c9b5e8c0c4e21d,37,feedbackTrial, ,,,,,,,,,,,,,,,,,"
                    <div style=""text-align:center;"">
                        <p style=""color:red; font-size:24px;"">Incorrect</p><p>You still have 26 points.</p>
                        <p> Press any key to continue. </p>
                    </div>
                    "
,,html-keyboard-response,103,2.0.0,437826,crl6ayhdwz,693e609928541f4126f49c4b,693e77d134c9b5e8c0c4e21d,37,socialPredictionGame,,,,"{""R"":10,""P"":5,""S"":7,""T"":8}",7.0,8.0,10.0,5.0,HG,Purple,def,F.A.,opt_inv,def,5.0,1.0,5901.299999952316,
,601.0,html-keyboard-response,104,2.0.0,438427,crl6ayhdwz,693e609928541f4126f49c4b,693e77d134c9b5e8c0c4e21d,37,feedbackTrial, ,,,,,,,,,,,,,,,,,"
                    <div style=""text-align:center;"">
                        <p style=""color:green; font-size:24px;"">Correct!</p><p>You now have 27 points.</p>
                        <p> Press any key to continue. </p>
                    </div>
                    "
,,html-keyboard-response,105,2.0.0,442389,crl6ayhdwz,693e609928541f4126f49c4b,693e77d134c9b5e8c0c4e21d,37,socialPredictionGame,,,,"{""R"":10,""P"":5,""S"":0,""T"":15}",0.0,15.0,10.0,5.0,PD,Purple,def,F.A.,opt_inv,coop,7.0,0.0,3961.5,
,718.0,html-keyboard-response,106,2.0.0,443108,crl6ayhdwz,693e609928541f4126f49c4b,693e77d134c9b5e8c0c4e21d,37,feedbackTrial, ,,,,,,,,,,,,,,,,,"
                    <div style=""text-align:center;"">
                        <p style=""color:red; font-size:24px;"">Incorrect</p><p>You still have 27 points.</p>
                        <p> Press any key to continue. </p>
                    </div>
                    "
,,html-keyboard-response,107,2.0.0,447483,crl6ayhdwz,693e609928541f4126f49c4b,693e77d134c9b5e8c0c4e21d,37,socialPredictionGame,,,,"{""R"":10,""P"":5,""S"":10,""T"":5}",10.0,5.0,10.0,5.0,HG,Red,coop,F.A.,opt_inv,def,5.0,0.0,4374.299999952316,
,596.0,html-keyboard-response,108,2.0.0,448080,crl6ayhdwz,693e609928541f4126f49c4b,693e77d134c9b5e8c0c4e21d,37,feedbackTrial, ,,,,,,,,,,,,,,,,,"
                    <div style=""text-align:center;"">
                        <p style=""color:red; font-size:24px;"">Incorrect</p><p>You still have 27 points.</p>
                        <p> Press any key to continue. </p>
                    </div>
                    "
,,html-keyboard-response,109,2.0.0,452256,crl6ayhdwz,693e609928541f4126f49c4b,693e77d134c9b5e8c0c4e21d,37,socialPredictionGame,,,,"{""R"":10,""P"":5,""S"":0,""T"":12}",0.0,12.0,10.0,5.0,PD,Purple,def,F.A.,opt_inv,coop,6.0,0.0,4175.300000190735,
,517.0,html-keyboard-response,110,2.0.0,452773,crl6ayhdwz,693e609928541f4126f49c4b,693e77d134c9b5e8c0c4e21d,37,feedbackTrial, ,,,,,,,,,,,,,,,,,"
                    <div style=""text-align:center;"">
                        <p style=""color:red; font-size:24px;"">Incorrect</p><p>You still have 27 points.</p>
                        <p> Press any key to continue. </p>
                    </div>
                    "
,8056.0,survey-html-form,111,2.1.0,460830,crl6ayhdwz,693e609928541f4126f49c4b,693e77d134c9b5e8c0c4e21d,37,strategyPrediction,"{""strategyPrediction"":""It was generally to choose the worse option.""}",,,,,,,,,,,,,,,,,
"[{""page_index"":0,""viewing_time"":1810}]",1810.0,instructions,112,2.1.0,462642,crl6ayhdwz,693e609928541f4126f49c4b,693e77d134c9b5e8c0c4e21d,37,,,,,,,,,,,,,,,,,,,
,,html-keyboard-response,113,2.0.0,469798,crl6ayhdwz,693e609928541f4126f49c4b,693e77d134c9b5e8c0c4e21d,37,socialPredictionGame,,,,"{""R"":10,""P"":5,""S"":10,""T"":8}",10.0,8.0,10.0,5.0,HG,Red,coop,D.T.,opt_nat,coop,9.0,1.0,7155.400000095367,
,613.0,html-keyboard-response,114,2.0.0,470412,crl6ayhdwz,693e609928541f4126f49c4b,693e77d134c9b5e8c0c4e21d,37,feedbackTrial, ,,,,,,,,,,,,,,,,,"
                    <div style=""text-align:center;"">
                        <p style=""color:green; font-size:24px;"">Correct!</p><p>You now have 28 points.</p>
                        <p> Press any key to continue. </p>
                    </div>
                    "
,,html-keyboard-response,115,2.0.0,474674,crl6ayhdwz,693e609928541f4126f49c4b,693e77d134c9b5e8c0c4e21d,37,socialPredictionGame,,,,"{""R"":10,""P"":5,""S"":3,""T"":15}",3.0,15.0,10.0,5.0,PD,Blue,def,D.T.,opt_nat,def,8.0,1.0,4261.799999952316,
,514.0,html-keyboard-response,116,2.0.0,475189,crl6ayhdwz,693e609928541f4126f49c4b,693e77d134c9b5e8c0c4e21d,37,feedbackTrial, ,,,,,,,,,,,,,,,,,"
                    <div style=""text-align:center;"">
                        <p style=""color:green; font-size:24px;"">Correct!</p><p>You now have 29 points.</p>
                        <p> Press any key to continue. </p>
                    </div>
                    "
,,html-keyboard-response,117,2.0.0,478612,crl6ayhdwz,693e609928541f4126f49c4b,693e77d134c9b5e8c0c4e21d,37,socialPredictionGame,,,,"{""R"":10,""P"":5,""S"":7,""T"":12}",7.0,12.0,10.0,5.0,SG,Blue,def,D.T.,opt_nat,def,8.0,1.0,3420.599999904633,
,452.0,html-keyboard-response,118,2.0.0,479064,crl6ayhdwz,693e609928541f4126f49c4b,693e77d134c9b5e8c0c4e21d,37,feedbackTrial, ,,,,,,,,,,,,,,,,,"
                    <div style=""text-align:center;"">
                        <p style=""color:green; font-size:24px;"">Correct!</p><p>You now have 30 points.</p>
                        <p> Press any key to continue. </p>
                    </div>
                    "
,,html-keyboard-response,119,2.0.0,482547,crl6ayhdwz,693e609928541f4126f49c4b,693e77d134c9b5e8c0c4e21d,37,socialPredictionGame,,,,"{""R"":10,""P"":5,""S"":3,""T"":12}",3.0,12.0,10.0,5.0,PD,Blue,def,D.T.,opt_nat,def,9.0,1.0,3482.900000095367,
,521.0,html-keyboard-response,120,2.0.0,483069,crl6ayhdwz,693e609928541f4126f49c4b,693e77d134c9b5e8c0c4e21d,37,feedbackTrial, ,,,,,,,,,,,,,,,,,"
                    <div style=""text-align:center;"">
                        <p style=""color:green; font-size:24px;"">Correct!</p><p>You now have 31 points.</p>
                        <p> Press any key to continue. </p>
                    </div>
                    "
,,html-keyboard-response,121,2.0.0,486650,crl6ayhdwz,693e609928541f4126f49c4b,693e77d134c9b5e8c0c4e21d,37,socialPredictionGame,,,,"{""R"":10,""P"":5,""S"":7,""T"":8}",7.0,8.0,10.0,5.0,HG,Red,coop,D.T.,opt_nat,coop,10.0,1.0,3578.5,
,563.0,html-keyboard-response,122,2.0.0,487213,crl6ayhdwz,693e609928541f4126f49c4b,693e77d134c9b5e8c0c4e21d,37,feedbackTrial, ,,,,,,,,,,,,,,,,,"
                    <div style=""text-align:center;"">
                        <p style=""color:green; font-size:24px;"">Correct!</p><p>You now have 32 points.</p>
                        <p> Press any key to continue. </p>
                    </div>
                    "
,,html-keyboard-response,123,2.0.0,491166,crl6ayhdwz,693e609928541f4126f49c4b,693e77d134c9b5e8c0c4e21d,37,socialPredictionGame,,,,"{""R"":10,""P"":5,""S"":3,""T"":5}",3.0,5.0,10.0,5.0,SH,Blue,def,D.T.,opt_nat,coop,5.0,0.0,3951.0,
,686.0,html-keyboard-response,124,2.0.0,491853,crl6ayhdwz,693e609928541f4126f49c4b,693e77d134c9b5e8c0c4e21d,37,feedbackTrial, ,,,,,,,,,,,,,,,,,"
                    <div style=""text-align:center;"">
                        <p style=""color:red; font-size:24px;"">Incorrect</p><p>You still have 32 points.</p>
                        <p> Press any key to continue. </p>
                    </div>
                    "
,,html-keyboard-response,125,2.0.0,495502,crl6ayhdwz,693e609928541f4126f49c4b,693e77d134c9b5e8c0c4e21d,37,socialPredictionGame,,,,"{""R"":10,""P"":5,""S"":10,""T"":5}",10.0,5.0,10.0,5.0,HG,Red,coop,D.T.,opt_nat,coop,10.0,1.0,3646.399999856949,
,686.0,html-keyboard-response,126,2.0.0,496188,crl6ayhdwz,693e609928541f4126f49c4b,693e77d134c9b5e8c0c4e21d,37,feedbackTrial, ,,,,,,,,,,,,,,,,,"
                    <div style=""text-align:center;"">
                        <p style=""color:green; font-size:24px;"">Correct!</p><p>You now have 33 points.</p>
                        <p> Press any key to continue. </p>
                    </div>
                    "
,,html-keyboard-response,127,2.0.0,499870,crl6ayhdwz,693e609928541f4126f49c4b,693e77d134c9b5e8c0c4e21d,37,socialPredictionGame,,,,"{""R"":10,""P"":5,""S"":7,""T"":5}",7.0,5.0,10.0,5.0,HG,Red,coop,D.T.,opt_nat,coop,10.0,1.0,3681.599999904633,
,597.0,html-keyboard-response,128,2.0.0,500467,crl6ayhdwz,693e609928541f4126f49c4b,693e77d134c9b5e8c0c4e21d,37,feedbackTrial, ,,,,,,,,,,,,,,,,,"
                    <div style=""text-align:center;"">
                        <p style=""color:green; font-size:24px;"">Correct!</p><p>You now have 34 points.</p>
                        <p> Press any key to continue. </p>
                    </div>
                    "
,,html-keyboard-response,129,2.0.0,505502,crl6ayhdwz,693e609928541f4126f49c4b,693e77d134c9b5e8c0c4e21d,37,socialPredictionGame,,,,"{""R"":10,""P"":5,""S"":0,""T"":5}",0.0,5.0,10.0,5.0,SH,Red,coop,D.T.,opt_nat,coop,5.0,1.0,5033.800000190735,
,869.0,html-keyboard-response,130,2.0.0,506371,crl6ayhdwz,693e609928541f4126f49c4b,693e77d134c9b5e8c0c4e21d,37,feedbackTrial, ,,,,,,,,,,,,,,,,,"
                    <div style=""text-align:center;"">
                        <p style=""color:green; font-size:24px;"">Correct!</p><p>You now have 35 points.</p>
                        <p> Press any key to continue. </p>
                    </div>
                    "
,,html-keyboard-response,131,2.0.0,510682,crl6ayhdwz,693e609928541f4126f49c4b,693e77d134c9b5e8c0c4e21d,37,socialPredictionGame,,,,"{""R"":10,""P"":5,""S"":10,""T"":12}",10.0,12.0,10.0,5.0,SG,Red,coop,D.T.,opt_nat,def,8.0,0.0,4310.200000047684,
,1409.0,html-keyboard-response,132,2.0.0,512091,crl6ayhdwz,693e609928541f4126f49c4b,693e77d134c9b5e8c0c4e21d,37,feedbackTrial, ,,,,,,,,,,,,,,,,,"
                    <div style=""text-align:center;"">
                        <p style=""color:red; font-size:24px;"">Incorrect</p><p>You still have 35 points.</p>
                        <p> Press any key to continue. </p>
                    </div>
                    "
,,html-keyboard-response,133,2.0.0,516080,crl6ayhdwz,693e609928541f4126f49c4b,693e77d134c9b5e8c0c4e21d,37,socialPredictionGame,,,,"{""R"":10,""P"":5,""S"":7,""T"":15}",7.0,15.0,10.0,5.0,SG,Red,coop,D.T.,opt_nat,def,6.0,0.0,3988.0,
,547.0,html-keyboard-response,134,2.0.0,516628,crl6ayhdwz,693e609928541f4126f49c4b,693e77d134c9b5e8c0c4e21d,37,feedbackTrial, ,,,,,,,,,,,,,,,,,"
                    <div style=""text-align:center;"">
                        <p style=""color:red; font-size:24px;"">Incorrect</p><p>You still have 35 points.</p>
                        <p> Press any key to continue. </p>
                    </div>
                    "
,,html-keyboard-response,135,2.0.0,521698,crl6ayhdwz,693e609928541f4126f49c4b,693e77d134c9b5e8c0c4e21d,37,socialPredictionGame,,,,"{""R"":10,""P"":5,""S"":3,""T"":8}",3.0,8.0,10.0,5.0,SH,Blue,def,D.T.,opt_nat,coop,6.0,0.0,5069.799999952316,
,578.0,html-keyboard-response,136,2.0.0,522277,crl6ayhdwz,693e609928541f4126f49c4b,693e77d134c9b5e8c0c4e21d,37,feedbackTrial, ,,,,,,,,,,,,,,,,,"
                    <div style=""text-align:center;"">
                        <p style=""color:red; font-size:24px;"">Incorrect</p><p>You still have 35 points.</p>
                        <p> Press any key to continue. </p>
                    </div>
                    "
,,html-keyboard-response,137,2.0.0,525220,crl6ayhdwz,693e609928541f4126f49c4b,693e77d134c9b5e8c0c4e21d,37,socialPredictionGame,,,,"{""R"":10,""P"":5,""S"":10,""T"":15}",10.0,15.0,10.0,5.0,SG,Red,coop,D.T.,opt_nat,def,6.0,0.0,2940.2999999523163,
,560.0,html-keyboard-response,138,2.0.0,525781,crl6ayhdwz,693e609928541f4126f49c4b,693e77d134c9b5e8c0c4e21d,37,feedbackTrial, ,,,,,,,,,,,,,,,,,"
                    <div style=""text-align:center;"">
                        <p style=""color:red; font-size:24px;"">Incorrect</p><p>You still have 35 points.</p>
                        <p> Press any key to continue. </p>
                    </div>
                    "
,,html-keyboard-response,139,2.0.0,530198,crl6ayhdwz,693e609928541f4126f49c4b,693e77d134c9b5e8c0c4e21d,37,socialPredictionGame,,,,"{""R"":10,""P"":5,""S"":0,""T"":12}",0.0,12.0,10.0,5.0,PD,Blue,def,D.T.,opt_nat,def,8.0,1.0,4414.799999952316,
,1389.0,html-keyboard-response,140,2.0.0,531587,crl6ayhdwz,693e609928541f4126f49c4b,693e77d134c9b5e8c0c4e21d,37,feedbackTrial, ,,,,,,,,,,,,,,,,,"
                    <div style=""text-align:center;"">
                        <p style=""color:green; font-size:24px;"">Correct!</p><p>You now have 36 points.</p>
                        <p> Press any key to continue. </p>
                    </div>
                    "
,,html-keyboard-response,141,2.0.0,545112,crl6ayhdwz,693e609928541f4126f49c4b,693e77d134c9b5e8c0c4e21d,37,socialPredictionGame,,,,"{""R"":10,""P"":5,""S"":0,""T"":15}",0.0,15.0,10.0,5.0,PD,Blue,def,D.T.,opt_nat,def,5.0,1.0,13524.099999904633,
,700.0,html-keyboard-response,142,2.0.0,545813,crl6ayhdwz,693e609928541f4126f49c4b,693e77d134c9b5e8c0c4e21d,37,feedbackTrial, ,,,,,,,,,,,,,,,,,"
                    <div style=""text-align:center;"">
                        <p style=""color:green; font-size:24px;"">Correct!</p><p>You now have 37 points.</p>
                        <p> Press any key to continue. </p>
                    </div>
                    "
,,html-keyboard-response,143,2.0.0,549220,crl6ayhdwz,693e609928541f4126f49c4b,693e77d134c9b5e8c0c4e21d,37,socialPredictionGame,,,,"{""R"":10,""P"":5,""S"":0,""T"":8}",0.0,8.0,10.0,5.0,SH,Blue,def,D.T.,opt_nat,coop,5.0,0.0,3404.900000095367,
,608.0,html-keyboard-response,144,2.0.0,549829,crl6ayhdwz,693e609928541f4126f49c4b,693e77d134c9b5e8c0c4e21d,37,feedbackTrial, ,,,,,,,,,,,,,,,,,"
                    <div style=""text-align:center;"">
                        <p style=""color:red; font-size:24px;"">Incorrect</p><p>You still have 37 points.</p>
                        <p> Press any key to continue. </p>
                    </div>
                    "
,18838.0,survey-html-form,145,2.1.0,568669,crl6ayhdwz,693e609928541f4126f49c4b,693e77d134c9b5e8c0c4e21d,37,strategyPrediction,"{""strategyPrediction"":""It switched from choosing the safer option to chooseing the riskier option.""}",,,,,,,,,,,,,,,,,
,4197.0,survey-html-form,146,2.1.0,572869,crl6ayhdwz,693e609928541f4126f49c4b,693e77d134c9b5e8c0c4e21d,37,demographics,"{""age"":""41"",""gender"":""Male""}",,,,,,,,,,,,,,,,,
,11590.0,survey-html-form,147,2.1.0,584460,crl6ayhdwz,693e609928541f4126f49c4b,693e77d134c9b5e8c0c4e21d,37,technical,"{""technical"":""no"",""feedback"":""Everything worked fine.""}",,,,,,,,,,,,,,,,,
