view_history,rt,trial_type,trial_index,plugin_version,time_elapsed,subjectID,studyID,sessionID,overallBonusPoints,task,response,question_order,success,Matrix,S,T,R,P,GameType,choice,GivenAns,Player,PlayerType,CorrAns,confidence,ScoreNum,time_on_trial,stimulus
[{"page_index":0,"viewing_time":2049},{"page_index":1,"viewing_time":1951}],4000,instructions,0,2.1.0,4009,e2brtg5dde,692638df063c96e069476515,6932661eef396488942b5157,46,,,,,,,,,,,,,,,,,,,
[{"page_index":0,"viewing_time":61542}],61542,instructions,1,2.1.0,65554,e2brtg5dde,692638df063c96e069476515,6932661eef396488942b5157,46,,,,,,,,,,,,,,,,,,,
[{"page_index":0,"viewing_time":2017}],2017,instructions,2,2.1.0,67572,e2brtg5dde,692638df063c96e069476515,6932661eef396488942b5157,46,,,,,,,,,,,,,,,,,,,
,5648,survey-multi-choice,3,null,73222,e2brtg5dde,692638df063c96e069476515,6932661eef396488942b5157,46,comprehensionCheck,{"task":"Choose the option the anonymized participant chose","incentive":"Yes—they received bonuses based on their performance"},[0,1],,,,,,,,,,,,,,,,
,1094,fullscreen,4,2.1.0,75320,e2brtg5dde,692638df063c96e069476515,6932661eef396488942b5157,46,,,,true,,,,,,,,,,,,,,,
[{"page_index":0,"viewing_time":2362}],2362,instructions,5,2.1.0,77683,e2brtg5dde,692638df063c96e069476515,6932661eef396488942b5157,46,,,,,,,,,,,,,,,,,,,
,,html-keyboard-response,6,2.0.0,95191,e2brtg5dde,692638df063c96e069476515,6932661eef396488942b5157,46,playOwnGame,,,,{"R":10,"P":5,"S":10,"T":12},10,12,10,5,SG,Green,def,,,,,,,
,,html-keyboard-response,7,2.0.0,105679,e2brtg5dde,692638df063c96e069476515,6932661eef396488942b5157,46,playOwnGame,,,,{"R":10,"P":5,"S":3,"T":12},3,12,10,5,PD,Green,def,,,,,,,
,,html-keyboard-response,8,2.0.0,110687,e2brtg5dde,692638df063c96e069476515,6932661eef396488942b5157,46,playOwnGame,,,,{"R":10,"P":5,"S":3,"T":8},3,8,10,5,SH,Blue,coop,,,,,,,
,,html-keyboard-response,9,2.0.0,112662,e2brtg5dde,692638df063c96e069476515,6932661eef396488942b5157,46,playOwnGame,,,,{"R":10,"P":5,"S":10,"T":8},10,8,10,5,HG,Blue,coop,,,,,,,
[{"page_index":0,"viewing_time":1144}],1144,instructions,10,2.1.0,113807,e2brtg5dde,692638df063c96e069476515,6932661eef396488942b5157,46,,,,,,,,,,,,,,,,,,,
,,html-keyboard-response,11,2.0.0,122742,e2brtg5dde,692638df063c96e069476515,6932661eef396488942b5157,46,socialPredictionGame,,,,{"R":10,"P":5,"S":10,"T":15},10,15,10,5,SG,Green,def,F.A.,opt_inv,coop,10,0,8934.200000047684,
,1214,html-keyboard-response,12,2.0.0,123958,e2brtg5dde,692638df063c96e069476515,6932661eef396488942b5157,46,feedbackTrial,d,,,,,,,,,,,,,,,,,
                    <div style="text-align:center;">
                        <p style="color:red; font-size:24px;">Incorrect</p><p>You still have 0 points.</p>
                        <p> Press any key to continue. </p>
                    </div>
                    
,,html-keyboard-response,13,2.0.0,131751,e2brtg5dde,692638df063c96e069476515,6932661eef396488942b5157,46,socialPredictionGame,,,,{"R":10,"P":5,"S":0,"T":15},0,15,10,5,PD,Purple,coop,F.A.,opt_inv,coop,10,1,7791.700000047684,
,830,html-keyboard-response,14,2.0.0,132582,e2brtg5dde,692638df063c96e069476515,6932661eef396488942b5157,46,feedbackTrial,d,,,,,,,,,,,,,,,,,
                    <div style="text-align:center;">
                        <p style="color:green; font-size:24px;">Correct!</p><p>You now have 1 points.</p>
                        <p> Press any key to continue. </p>
                    </div>
                    
,,html-keyboard-response,15,2.0.0,136964,e2brtg5dde,692638df063c96e069476515,6932661eef396488942b5157,46,socialPredictionGame,,,,{"R":10,"P":5,"S":10,"T":12},10,12,10,5,SG,Purple,coop,F.A.,opt_inv,coop,10,1,4381.5,
,545,html-keyboard-response,16,2.0.0,137509,e2brtg5dde,692638df063c96e069476515,6932661eef396488942b5157,46,feedbackTrial,d,,,,,,,,,,,,,,,,,
                    <div style="text-align:center;">
                        <p style="color:green; font-size:24px;">Correct!</p><p>You now have 2 points.</p>
                        <p> Press any key to continue. </p>
                    </div>
                    
,,html-keyboard-response,17,2.0.0,143133,e2brtg5dde,692638df063c96e069476515,6932661eef396488942b5157,46,socialPredictionGame,,,,{"R":10,"P":5,"S":7,"T":5},7,5,10,5,HG,Purple,coop,F.A.,opt_inv,def,8,0,5622.200000047684,
,513,html-keyboard-response,18,2.0.0,143646,e2brtg5dde,692638df063c96e069476515,6932661eef396488942b5157,46,feedbackTrial,d,,,,,,,,,,,,,,,,,
                    <div style="text-align:center;">
                        <p style="color:red; font-size:24px;">Incorrect</p><p>You still have 2 points.</p>
                        <p> Press any key to continue. </p>
                    </div>
                    
,,html-keyboard-response,19,2.0.0,148000,e2brtg5dde,692638df063c96e069476515,6932661eef396488942b5157,46,socialPredictionGame,,,,{"R":10,"P":5,"S":0,"T":12},0,12,10,5,PD,Purple,coop,F.A.,opt_inv,coop,10,1,4352.700000047684,
,590,html-keyboard-response,20,2.0.0,148591,e2brtg5dde,692638df063c96e069476515,6932661eef396488942b5157,46,feedbackTrial,d,,,,,,,,,,,,,,,,,
                    <div style="text-align:center;">
                        <p style="color:green; font-size:24px;">Correct!</p><p>You now have 3 points.</p>
                        <p> Press any key to continue. </p>
                    </div>
                    
,,html-keyboard-response,21,2.0.0,151111,e2brtg5dde,692638df063c96e069476515,6932661eef396488942b5157,46,socialPredictionGame,,,,{"R":10,"P":5,"S":7,"T":12},7,12,10,5,SG,Purple,coop,F.A.,opt_inv,coop,10,1,2519.7000000476837,
,368,html-keyboard-response,22,2.0.0,151480,e2brtg5dde,692638df063c96e069476515,6932661eef396488942b5157,46,feedbackTrial,d,,,,,,,,,,,,,,,,,
                    <div style="text-align:center;">
                        <p style="color:green; font-size:24px;">Correct!</p><p>You now have 4 points.</p>
                        <p> Press any key to continue. </p>
                    </div>
                    
,,html-keyboard-response,23,2.0.0,155215,e2brtg5dde,692638df063c96e069476515,6932661eef396488942b5157,46,socialPredictionGame,,,,{"R":10,"P":5,"S":0,"T":5},0,5,10,5,SH,Green,def,F.A.,opt_inv,def,10,1,3733.899999856949,
,401,html-keyboard-response,24,2.0.0,155616,e2brtg5dde,692638df063c96e069476515,6932661eef396488942b5157,46,feedbackTrial,d,,,,,,,,,,,,,,,,,
                    <div style="text-align:center;">
                        <p style="color:green; font-size:24px;">Correct!</p><p>You now have 5 points.</p>
                        <p> Press any key to continue. </p>
                    </div>
                    
,,html-keyboard-response,25,2.0.0,157896,e2brtg5dde,692638df063c96e069476515,6932661eef396488942b5157,46,socialPredictionGame,,,,{"R":10,"P":5,"S":3,"T":8},3,8,10,5,SH,Green,def,F.A.,opt_inv,def,10,1,2278.899999856949,
,285,html-keyboard-response,26,2.0.0,158182,e2brtg5dde,692638df063c96e069476515,6932661eef396488942b5157,46,feedbackTrial,d,,,,,,,,,,,,,,,,,
                    <div style="text-align:center;">
                        <p style="color:green; font-size:24px;">Correct!</p><p>You now have 6 points.</p>
                        <p> Press any key to continue. </p>
                    </div>
                    
,,html-keyboard-response,27,2.0.0,160417,e2brtg5dde,692638df063c96e069476515,6932661eef396488942b5157,46,socialPredictionGame,,,,{"R":10,"P":5,"S":10,"T":8},10,8,10,5,HG,Green,def,F.A.,opt_inv,def,10,1,2234.2999999523163,
,269,html-keyboard-response,28,2.0.0,160687,e2brtg5dde,692638df063c96e069476515,6932661eef396488942b5157,46,feedbackTrial,d,,,,,,,,,,,,,,,,,
                    <div style="text-align:center;">
                        <p style="color:green; font-size:24px;">Correct!</p><p>You now have 7 points.</p>
                        <p> Press any key to continue. </p>
                    </div>
                    
,,html-keyboard-response,29,2.0.0,164079,e2brtg5dde,692638df063c96e069476515,6932661eef396488942b5157,46,socialPredictionGame,,,,{"R":10,"P":5,"S":3,"T":5},3,5,10,5,SH,Green,def,F.A.,opt_inv,def,10,1,3391.2999999523163,
,375,html-keyboard-response,30,2.0.0,164454,e2brtg5dde,692638df063c96e069476515,6932661eef396488942b5157,46,feedbackTrial,d,,,,,,,,,,,,,,,,,
                    <div style="text-align:center;">
                        <p style="color:green; font-size:24px;">Correct!</p><p>You now have 8 points.</p>
                        <p> Press any key to continue. </p>
                    </div>
                    
,,html-keyboard-response,31,2.0.0,167302,e2brtg5dde,692638df063c96e069476515,6932661eef396488942b5157,46,socialPredictionGame,,,,{"R":10,"P":5,"S":3,"T":12},3,12,10,5,PD,Purple,coop,F.A.,opt_inv,coop,10,1,2846.5,
,279,html-keyboard-response,32,2.0.0,167581,e2brtg5dde,692638df063c96e069476515,6932661eef396488942b5157,46,feedbackTrial,d,,,,,,,,,,,,,,,,,
                    <div style="text-align:center;">
                        <p style="color:green; font-size:24px;">Correct!</p><p>You now have 9 points.</p>
                        <p> Press any key to continue. </p>
                    </div>
                    
,,html-keyboard-response,33,2.0.0,170792,e2brtg5dde,692638df063c96e069476515,6932661eef396488942b5157,46,socialPredictionGame,,,,{"R":10,"P":5,"S":0,"T":8},0,8,10,5,SH,Green,def,F.A.,opt_inv,def,10,1,3210.5999999046326,
,206,html-keyboard-response,34,2.0.0,171000,e2brtg5dde,692638df063c96e069476515,6932661eef396488942b5157,46,feedbackTrial,d,,,,,,,,,,,,,,,,,
                    <div style="text-align:center;">
                        <p style="color:green; font-size:24px;">Correct!</p><p>You now have 10 points.</p>
                        <p> Press any key to continue. </p>
                    </div>
                    
,,html-keyboard-response,35,2.0.0,173849,e2brtg5dde,692638df063c96e069476515,6932661eef396488942b5157,46,socialPredictionGame,,,,{"R":10,"P":5,"S":7,"T":15},7,15,10,5,SG,Purple,coop,F.A.,opt_inv,coop,10,1,2848.5,
,190,html-keyboard-response,36,2.0.0,174039,e2brtg5dde,692638df063c96e069476515,6932661eef396488942b5157,46,feedbackTrial,d,,,,,,,,,,,,,,,,,
                    <div style="text-align:center;">
                        <p style="color:green; font-size:24px;">Correct!</p><p>You now have 11 points.</p>
                        <p> Press any key to continue. </p>
                    </div>
                    
,,html-keyboard-response,37,2.0.0,178031,e2brtg5dde,692638df063c96e069476515,6932661eef396488942b5157,46,socialPredictionGame,,,,{"R":10,"P":5,"S":3,"T":15},3,15,10,5,PD,Purple,coop,F.A.,opt_inv,coop,10,1,3990.9000000953674,
,215,html-keyboard-response,38,2.0.0,178247,e2brtg5dde,692638df063c96e069476515,6932661eef396488942b5157,46,feedbackTrial,d,,,,,,,,,,,,,,,,,
                    <div style="text-align:center;">
                        <p style="color:green; font-size:24px;">Correct!</p><p>You now have 12 points.</p>
                        <p> Press any key to continue. </p>
                    </div>
                    
,,html-keyboard-response,39,2.0.0,180385,e2brtg5dde,692638df063c96e069476515,6932661eef396488942b5157,46,socialPredictionGame,,,,{"R":10,"P":5,"S":10,"T":5},10,5,10,5,HG,Green,def,F.A.,opt_inv,def,10,1,2137,
,140,html-keyboard-response,40,2.0.0,180526,e2brtg5dde,692638df063c96e069476515,6932661eef396488942b5157,46,feedbackTrial,d,,,,,,,,,,,,,,,,,
                    <div style="text-align:center;">
                        <p style="color:green; font-size:24px;">Correct!</p><p>You now have 13 points.</p>
                        <p> Press any key to continue. </p>
                    </div>
                    
,,html-keyboard-response,41,2.0.0,182815,e2brtg5dde,692638df063c96e069476515,6932661eef396488942b5157,46,socialPredictionGame,,,,{"R":10,"P":5,"S":7,"T":8},7,8,10,5,HG,Green,def,F.A.,opt_inv,def,10,1,2288.5999999046326,
,94,html-keyboard-response,42,2.0.0,182910,e2brtg5dde,692638df063c96e069476515,6932661eef396488942b5157,46,feedbackTrial,d,,,,,,,,,,,,,,,,,
                    <div style="text-align:center;">
                        <p style="color:green; font-size:24px;">Correct!</p><p>You now have 14 points.</p>
                        <p> Press any key to continue. </p>
                    </div>
                    
,11606,survey-html-form,43,2.1.0,194517,e2brtg5dde,692638df063c96e069476515,6932661eef396488942b5157,46,strategyPrediction,{"strategyPrediction":"Pick what gave the the least points"},,,,,,,,,,,,,,,,,
[{"page_index":0,"viewing_time":1459}],1459,instructions,44,2.1.0,195977,e2brtg5dde,692638df063c96e069476515,6932661eef396488942b5157,46,,,,,,,,,,,,,,,,,,,
,,html-keyboard-response,45,2.0.0,199561,e2brtg5dde,692638df063c96e069476515,6932661eef396488942b5157,46,socialPredictionGame,,,,{"R":10,"P":5,"S":0,"T":5},0,5,10,5,SH,Blue,coop,D.T.,opt_nat,coop,10,1,3583.0999999046326,
,517,html-keyboard-response,46,2.0.0,200079,e2brtg5dde,692638df063c96e069476515,6932661eef396488942b5157,46,feedbackTrial,d,,,,,,,,,,,,,,,,,
                    <div style="text-align:center;">
                        <p style="color:green; font-size:24px;">Correct!</p><p>You now have 15 points.</p>
                        <p> Press any key to continue. </p>
                    </div>
                    
,,html-keyboard-response,47,2.0.0,202017,e2brtg5dde,692638df063c96e069476515,6932661eef396488942b5157,46,socialPredictionGame,,,,{"R":10,"P":5,"S":10,"T":8},10,8,10,5,HG,Blue,coop,D.T.,opt_nat,coop,10,1,1937.7999999523163,
,445,html-keyboard-response,48,2.0.0,202463,e2brtg5dde,692638df063c96e069476515,6932661eef396488942b5157,46,feedbackTrial,d,,,,,,,,,,,,,,,,,
                    <div style="text-align:center;">
                        <p style="color:green; font-size:24px;">Correct!</p><p>You now have 16 points.</p>
                        <p> Press any key to continue. </p>
                    </div>
                    
,,html-keyboard-response,49,2.0.0,204210,e2brtg5dde,692638df063c96e069476515,6932661eef396488942b5157,46,socialPredictionGame,,,,{"R":10,"P":5,"S":0,"T":15},0,15,10,5,PD,Blue,coop,D.T.,opt_nat,def,10,0,1745.9000000953674,
,243,html-keyboard-response,50,2.0.0,204454,e2brtg5dde,692638df063c96e069476515,6932661eef396488942b5157,46,feedbackTrial,d,,,,,,,,,,,,,,,,,
                    <div style="text-align:center;">
                        <p style="color:red; font-size:24px;">Incorrect</p><p>You still have 16 points.</p>
                        <p> Press any key to continue. </p>
                    </div>
                    
,,html-keyboard-response,51,2.0.0,207936,e2brtg5dde,692638df063c96e069476515,6932661eef396488942b5157,46,socialPredictionGame,,,,{"R":10,"P":5,"S":0,"T":8},0,8,10,5,SH,Blue,coop,D.T.,opt_nat,coop,10,1,3481.399999856949,
,310,html-keyboard-response,52,2.0.0,208247,e2brtg5dde,692638df063c96e069476515,6932661eef396488942b5157,46,feedbackTrial,d,,,,,,,,,,,,,,,,,
                    <div style="text-align:center;">
                        <p style="color:green; font-size:24px;">Correct!</p><p>You now have 17 points.</p>
                        <p> Press any key to continue. </p>
                    </div>
                    
,,html-keyboard-response,53,2.0.0,210624,e2brtg5dde,692638df063c96e069476515,6932661eef396488942b5157,46,socialPredictionGame,,,,{"R":10,"P":5,"S":3,"T":5},3,5,10,5,SH,Blue,coop,D.T.,opt_nat,coop,10,1,2376,
,278,html-keyboard-response,54,2.0.0,210903,e2brtg5dde,692638df063c96e069476515,6932661eef396488942b5157,46,feedbackTrial,d,,,,,,,,,,,,,,,,,
                    <div style="text-align:center;">
                        <p style="color:green; font-size:24px;">Correct!</p><p>You now have 18 points.</p>
                        <p> Press any key to continue. </p>
                    </div>
                    
,,html-keyboard-response,55,2.0.0,213175,e2brtg5dde,692638df063c96e069476515,6932661eef396488942b5157,46,socialPredictionGame,,,,{"R":10,"P":5,"S":7,"T":12},7,12,10,5,SG,Green,def,D.T.,opt_nat,def,10,1,2271.9000000953674,
,280,html-keyboard-response,56,2.0.0,213456,e2brtg5dde,692638df063c96e069476515,6932661eef396488942b5157,46,feedbackTrial,d,,,,,,,,,,,,,,,,,
                    <div style="text-align:center;">
                        <p style="color:green; font-size:24px;">Correct!</p><p>You now have 19 points.</p>
                        <p> Press any key to continue. </p>
                    </div>
                    
,,html-keyboard-response,57,2.0.0,215585,e2brtg5dde,692638df063c96e069476515,6932661eef396488942b5157,46,socialPredictionGame,,,,{"R":10,"P":5,"S":10,"T":15},10,15,10,5,SG,Green,def,D.T.,opt_nat,def,10,1,2128.4000000953674,
,270,html-keyboard-response,58,2.0.0,215856,e2brtg5dde,692638df063c96e069476515,6932661eef396488942b5157,46,feedbackTrial,d,,,,,,,,,,,,,,,,,
                    <div style="text-align:center;">
                        <p style="color:green; font-size:24px;">Correct!</p><p>You now have 20 points.</p>
                        <p> Press any key to continue. </p>
                    </div>
                    
,,html-keyboard-response,59,2.0.0,217906,e2brtg5dde,692638df063c96e069476515,6932661eef396488942b5157,46,socialPredictionGame,,,,{"R":10,"P":5,"S":7,"T":5},7,5,10,5,HG,Blue,coop,D.T.,opt_nat,coop,10,1,2048.4000000953674,
,198,html-keyboard-response,60,2.0.0,218105,e2brtg5dde,692638df063c96e069476515,6932661eef396488942b5157,46,feedbackTrial,d,,,,,,,,,,,,,,,,,
                    <div style="text-align:center;">
                        <p style="color:green; font-size:24px;">Correct!</p><p>You now have 21 points.</p>
                        <p> Press any key to continue. </p>
                    </div>
                    
,,html-keyboard-response,61,2.0.0,220426,e2brtg5dde,692638df063c96e069476515,6932661eef396488942b5157,46,socialPredictionGame,,,,{"R":10,"P":5,"S":10,"T":5},10,5,10,5,HG,Blue,coop,D.T.,opt_nat,coop,10,1,2320.2000000476837,
,152,html-keyboard-response,62,2.0.0,220578,e2brtg5dde,692638df063c96e069476515,6932661eef396488942b5157,46,feedbackTrial,d,,,,,,,,,,,,,,,,,
                    <div style="text-align:center;">
                        <p style="color:green; font-size:24px;">Correct!</p><p>You now have 22 points.</p>
                        <p> Press any key to continue. </p>
                    </div>
                    
,,html-keyboard-response,63,2.0.0,222866,e2brtg5dde,692638df063c96e069476515,6932661eef396488942b5157,46,socialPredictionGame,,,,{"R":10,"P":5,"S":3,"T":12},3,12,10,5,PD,Green,def,D.T.,opt_nat,def,10,1,2287,
,177,html-keyboard-response,64,2.0.0,223044,e2brtg5dde,692638df063c96e069476515,6932661eef396488942b5157,46,feedbackTrial,d,,,,,,,,,,,,,,,,,
                    <div style="text-align:center;">
                        <p style="color:green; font-size:24px;">Correct!</p><p>You now have 23 points.</p>
                        <p> Press any key to continue. </p>
                    </div>
                    
,,html-keyboard-response,65,2.0.0,225386,e2brtg5dde,692638df063c96e069476515,6932661eef396488942b5157,46,socialPredictionGame,,,,{"R":10,"P":5,"S":7,"T":8},7,8,10,5,HG,Blue,coop,D.T.,opt_nat,coop,10,1,2341.399999856949,
,102,html-keyboard-response,66,2.0.0,225488,e2brtg5dde,692638df063c96e069476515,6932661eef396488942b5157,46,feedbackTrial,d,,,,,,,,,,,,,,,,,
                    <div style="text-align:center;">
                        <p style="color:green; font-size:24px;">Correct!</p><p>You now have 24 points.</p>
                        <p> Press any key to continue. </p>
                    </div>
                    
,,html-keyboard-response,67,2.0.0,227512,e2brtg5dde,692638df063c96e069476515,6932661eef396488942b5157,46,socialPredictionGame,,,,{"R":10,"P":5,"S":3,"T":15},3,15,10,5,PD,Green,def,D.T.,opt_nat,def,10,1,2022.3000001907349,
,176,html-keyboard-response,68,2.0.0,227688,e2brtg5dde,692638df063c96e069476515,6932661eef396488942b5157,46,feedbackTrial,d,,,,,,,,,,,,,,,,,
                    <div style="text-align:center;">
                        <p style="color:green; font-size:24px;">Correct!</p><p>You now have 25 points.</p>
                        <p> Press any key to continue. </p>
                    </div>
                    
,,html-keyboard-response,69,2.0.0,229729,e2brtg5dde,692638df063c96e069476515,6932661eef396488942b5157,46,socialPredictionGame,,,,{"R":10,"P":5,"S":10,"T":12},10,12,10,5,SG,Green,def,D.T.,opt_nat,def,10,1,2040.2000000476837,
,423,html-keyboard-response,70,2.0.0,230153,e2brtg5dde,692638df063c96e069476515,6932661eef396488942b5157,46,feedbackTrial,d,,,,,,,,,,,,,,,,,
                    <div style="text-align:center;">
                        <p style="color:green; font-size:24px;">Correct!</p><p>You now have 26 points.</p>
                        <p> Press any key to continue. </p>
                    </div>
                    
,,html-keyboard-response,71,2.0.0,232305,e2brtg5dde,692638df063c96e069476515,6932661eef396488942b5157,46,socialPredictionGame,,,,{"R":10,"P":5,"S":7,"T":15},7,15,10,5,SG,Green,def,D.T.,opt_nat,def,10,1,2151.0999999046326,
,182,html-keyboard-response,72,2.0.0,232488,e2brtg5dde,692638df063c96e069476515,6932661eef396488942b5157,46,feedbackTrial,d,,,,,,,,,,,,,,,,,
                    <div style="text-align:center;">
                        <p style="color:green; font-size:24px;">Correct!</p><p>You now have 27 points.</p>
                        <p> Press any key to continue. </p>
                    </div>
                    
,,html-keyboard-response,73,2.0.0,234304,e2brtg5dde,692638df063c96e069476515,6932661eef396488942b5157,46,socialPredictionGame,,,,{"R":10,"P":5,"S":3,"T":8},3,8,10,5,SH,Blue,coop,D.T.,opt_nat,coop,10,1,1815.2000000476837,
,288,html-keyboard-response,74,2.0.0,234593,e2brtg5dde,692638df063c96e069476515,6932661eef396488942b5157,46,feedbackTrial,d,,,,,,,,,,,,,,,,,
                    <div style="text-align:center;">
                        <p style="color:green; font-size:24px;">Correct!</p><p>You now have 28 points.</p>
                        <p> Press any key to continue. </p>
                    </div>
                    
,,html-keyboard-response,75,2.0.0,236417,e2brtg5dde,692638df063c96e069476515,6932661eef396488942b5157,46,socialPredictionGame,,,,{"R":10,"P":5,"S":0,"T":12},0,12,10,5,PD,Green,def,D.T.,opt_nat,def,10,1,1822.7999999523163,
,185,html-keyboard-response,76,2.0.0,236602,e2brtg5dde,692638df063c96e069476515,6932661eef396488942b5157,46,feedbackTrial,d,,,,,,,,,,,,,,,,,
                    <div style="text-align:center;">
                        <p style="color:green; font-size:24px;">Correct!</p><p>You now have 29 points.</p>
                        <p> Press any key to continue. </p>
                    </div>
                    
,9869,survey-html-form,77,2.1.0,246472,e2brtg5dde,692638df063c96e069476515,6932661eef396488942b5157,46,strategyPrediction,{"strategyPrediction":"Pick what gave them the most points"},,,,,,,,,,,,,,,,,
[{"page_index":0,"viewing_time":922}],922,instructions,78,2.1.0,247394,e2brtg5dde,692638df063c96e069476515,6932661eef396488942b5157,46,,,,,,,,,,,,,,,,,,,
,,html-keyboard-response,79,2.0.0,262011,e2brtg5dde,692638df063c96e069476515,6932661eef396488942b5157,46,socialPredictionGame,,,,{"R":10,"P":5,"S":10,"T":15},10,15,10,5,SG,Red,coop,G.P.,pess_nat,coop,10,1,14615.5,
,1461,html-keyboard-response,80,2.0.0,263473,e2brtg5dde,692638df063c96e069476515,6932661eef396488942b5157,46,feedbackTrial,d,,,,,,,,,,,,,,,,,
                    <div style="text-align:center;">
                        <p style="color:green; font-size:24px;">Correct!</p><p>You now have 30 points.</p>
                        <p> Press any key to continue. </p>
                    </div>
                    
,,html-keyboard-response,81,2.0.0,292291,e2brtg5dde,692638df063c96e069476515,6932661eef396488942b5157,46,socialPredictionGame,,,,{"R":10,"P":5,"S":10,"T":5},10,5,10,5,HG,Purple,def,G.P.,pess_nat,coop,2,0,28815.89999985695,
,783,html-keyboard-response,82,2.0.0,293074,e2brtg5dde,692638df063c96e069476515,6932661eef396488942b5157,46,feedbackTrial,d,,,,,,,,,,,,,,,,,
                    <div style="text-align:center;">
                        <p style="color:red; font-size:24px;">Incorrect</p><p>You still have 30 points.</p>
                        <p> Press any key to continue. </p>
                    </div>
                    
,,html-keyboard-response,83,2.0.0,297056,e2brtg5dde,692638df063c96e069476515,6932661eef396488942b5157,46,socialPredictionGame,,,,{"R":10,"P":5,"S":7,"T":12},7,12,10,5,SG,Red,coop,G.P.,pess_nat,coop,4,1,3981,
,538,html-keyboard-response,84,2.0.0,297594,e2brtg5dde,692638df063c96e069476515,6932661eef396488942b5157,46,feedbackTrial,e,,,,,,,,,,,,,,,,,
                    <div style="text-align:center;">
                        <p style="color:green; font-size:24px;">Correct!</p><p>You now have 31 points.</p>
                        <p> Press any key to continue. </p>
                    </div>
                    
,,html-keyboard-response,85,2.0.0,306906,e2brtg5dde,692638df063c96e069476515,6932661eef396488942b5157,46,socialPredictionGame,,,,{"R":10,"P":5,"S":3,"T":15},3,15,10,5,PD,Purple,def,G.P.,pess_nat,def,10,1,9310.5,
,761,html-keyboard-response,86,2.0.0,307667,e2brtg5dde,692638df063c96e069476515,6932661eef396488942b5157,46,feedbackTrial,d,,,,,,,,,,,,,,,,,
                    <div style="text-align:center;">
                        <p style="color:green; font-size:24px;">Correct!</p><p>You now have 32 points.</p>
                        <p> Press any key to continue. </p>
                    </div>
                    
,,html-keyboard-response,87,2.0.0,309980,e2brtg5dde,692638df063c96e069476515,6932661eef396488942b5157,46,socialPredictionGame,,,,{"R":10,"P":5,"S":0,"T":5},0,5,10,5,SH,Purple,def,G.P.,pess_nat,def,10,1,2312.399999856949,
,316,html-keyboard-response,88,2.0.0,310297,e2brtg5dde,692638df063c96e069476515,6932661eef396488942b5157,46,feedbackTrial,d,,,,,,,,,,,,,,,,,
                    <div style="text-align:center;">
                        <p style="color:green; font-size:24px;">Correct!</p><p>You now have 33 points.</p>
                        <p> Press any key to continue. </p>
                    </div>
                    
,,html-keyboard-response,89,2.0.0,312420,e2brtg5dde,692638df063c96e069476515,6932661eef396488942b5157,46,socialPredictionGame,,,,{"R":10,"P":5,"S":0,"T":8},0,8,10,5,SH,Purple,def,G.P.,pess_nat,def,10,1,2122.199999809265,
,263,html-keyboard-response,90,2.0.0,312684,e2brtg5dde,692638df063c96e069476515,6932661eef396488942b5157,46,feedbackTrial,d,,,,,,,,,,,,,,,,,
                    <div style="text-align:center;">
                        <p style="color:green; font-size:24px;">Correct!</p><p>You now have 34 points.</p>
                        <p> Press any key to continue. </p>
                    </div>
                    
,,html-keyboard-response,91,2.0.0,315179,e2brtg5dde,692638df063c96e069476515,6932661eef396488942b5157,46,socialPredictionGame,,,,{"R":10,"P":5,"S":0,"T":12},0,12,10,5,PD,Purple,def,G.P.,pess_nat,def,10,1,2494.100000143051,
,271,html-keyboard-response,92,2.0.0,315451,e2brtg5dde,692638df063c96e069476515,6932661eef396488942b5157,46,feedbackTrial,d,,,,,,,,,,,,,,,,,
                    <div style="text-align:center;">
                        <p style="color:green; font-size:24px;">Correct!</p><p>You now have 35 points.</p>
                        <p> Press any key to continue. </p>
                    </div>
                    
,,html-keyboard-response,93,2.0.0,318043,e2brtg5dde,692638df063c96e069476515,6932661eef396488942b5157,46,socialPredictionGame,,,,{"R":10,"P":5,"S":7,"T":5},7,5,10,5,HG,Purple,def,G.P.,pess_nat,coop,10,0,2591.399999856949,
,269,html-keyboard-response,94,2.0.0,318313,e2brtg5dde,692638df063c96e069476515,6932661eef396488942b5157,46,feedbackTrial,d,,,,,,,,,,,,,,,,,
                    <div style="text-align:center;">
                        <p style="color:red; font-size:24px;">Incorrect</p><p>You still have 35 points.</p>
                        <p> Press any key to continue. </p>
                    </div>
                    
,,html-keyboard-response,95,2.0.0,321005,e2brtg5dde,692638df063c96e069476515,6932661eef396488942b5157,46,socialPredictionGame,,,,{"R":10,"P":5,"S":7,"T":15},7,15,10,5,SG,Purple,def,G.P.,pess_nat,coop,10,0,2690.7999999523163,
,414,html-keyboard-response,96,2.0.0,321419,e2brtg5dde,692638df063c96e069476515,6932661eef396488942b5157,46,feedbackTrial,d,,,,,,,,,,,,,,,,,
                    <div style="text-align:center;">
                        <p style="color:red; font-size:24px;">Incorrect</p><p>You still have 35 points.</p>
                        <p> Press any key to continue. </p>
                    </div>
                    
,,html-keyboard-response,97,2.0.0,323685,e2brtg5dde,692638df063c96e069476515,6932661eef396488942b5157,46,socialPredictionGame,,,,{"R":10,"P":5,"S":3,"T":8},3,8,10,5,SH,Purple,def,G.P.,pess_nat,def,10,1,2264.7999999523163,
,349,html-keyboard-response,98,2.0.0,324035,e2brtg5dde,692638df063c96e069476515,6932661eef396488942b5157,46,feedbackTrial,d,,,,,,,,,,,,,,,,,
                    <div style="text-align:center;">
                        <p style="color:green; font-size:24px;">Correct!</p><p>You now have 36 points.</p>
                        <p> Press any key to continue. </p>
                    </div>
                    
,,html-keyboard-response,99,2.0.0,327571,e2brtg5dde,692638df063c96e069476515,6932661eef396488942b5157,46,socialPredictionGame,,,,{"R":10,"P":5,"S":3,"T":5},3,5,10,5,SH,Purple,def,G.P.,pess_nat,def,10,1,3535.100000143051,
,343,html-keyboard-response,100,2.0.0,327915,e2brtg5dde,692638df063c96e069476515,6932661eef396488942b5157,46,feedbackTrial,d,,,,,,,,,,,,,,,,,
                    <div style="text-align:center;">
                        <p style="color:green; font-size:24px;">Correct!</p><p>You now have 37 points.</p>
                        <p> Press any key to continue. </p>
                    </div>
                    
,,html-keyboard-response,101,2.0.0,331251,e2brtg5dde,692638df063c96e069476515,6932661eef396488942b5157,46,socialPredictionGame,,,,{"R":10,"P":5,"S":3,"T":12},3,12,10,5,PD,Purple,def,G.P.,pess_nat,def,10,1,3336,
,336,html-keyboard-response,102,2.0.0,331589,e2brtg5dde,692638df063c96e069476515,6932661eef396488942b5157,46,feedbackTrial,d,,,,,,,,,,,,,,,,,
                    <div style="text-align:center;">
                        <p style="color:green; font-size:24px;">Correct!</p><p>You now have 38 points.</p>
                        <p> Press any key to continue. </p>
                    </div>
                    
,,html-keyboard-response,103,2.0.0,335932,e2brtg5dde,692638df063c96e069476515,6932661eef396488942b5157,46,socialPredictionGame,,,,{"R":10,"P":5,"S":10,"T":12},10,12,10,5,SG,Purple,def,G.P.,pess_nat,coop,10,0,4342.299999952316,
,392,html-keyboard-response,104,2.0.0,336325,e2brtg5dde,692638df063c96e069476515,6932661eef396488942b5157,46,feedbackTrial,d,,,,,,,,,,,,,,,,,
                    <div style="text-align:center;">
                        <p style="color:red; font-size:24px;">Incorrect</p><p>You still have 38 points.</p>
                        <p> Press any key to continue. </p>
                    </div>
                    
,,html-keyboard-response,105,2.0.0,340380,e2brtg5dde,692638df063c96e069476515,6932661eef396488942b5157,46,socialPredictionGame,,,,{"R":10,"P":5,"S":7,"T":8},7,8,10,5,HG,Red,coop,G.P.,pess_nat,coop,10,1,4054,
,318,html-keyboard-response,106,2.0.0,340699,e2brtg5dde,692638df063c96e069476515,6932661eef396488942b5157,46,feedbackTrial,d,,,,,,,,,,,,,,,,,
                    <div style="text-align:center;">
                        <p style="color:green; font-size:24px;">Correct!</p><p>You now have 39 points.</p>
                        <p> Press any key to continue. </p>
                    </div>
                    
,,html-keyboard-response,107,2.0.0,345900,e2brtg5dde,692638df063c96e069476515,6932661eef396488942b5157,46,socialPredictionGame,,,,{"R":10,"P":5,"S":10,"T":8},10,8,10,5,HG,Purple,def,G.P.,pess_nat,coop,10,0,5200.299999952316,
,464,html-keyboard-response,108,2.0.0,346365,e2brtg5dde,692638df063c96e069476515,6932661eef396488942b5157,46,feedbackTrial,d,,,,,,,,,,,,,,,,,
                    <div style="text-align:center;">
                        <p style="color:red; font-size:24px;">Incorrect</p><p>You still have 39 points.</p>
                        <p> Press any key to continue. </p>
                    </div>
                    
,,html-keyboard-response,109,2.0.0,349268,e2brtg5dde,692638df063c96e069476515,6932661eef396488942b5157,46,socialPredictionGame,,,,{"R":10,"P":5,"S":0,"T":15},0,15,10,5,PD,Purple,def,G.P.,pess_nat,def,10,1,2902.4000000953674,
,223,html-keyboard-response,110,2.0.0,349492,e2brtg5dde,692638df063c96e069476515,6932661eef396488942b5157,46,feedbackTrial,d,,,,,,,,,,,,,,,,,
                    <div style="text-align:center;">
                        <p style="color:green; font-size:24px;">Correct!</p><p>You now have 40 points.</p>
                        <p> Press any key to continue. </p>
                    </div>
                    
,9249,survey-html-form,111,2.1.0,358742,e2brtg5dde,692638df063c96e069476515,6932661eef396488942b5157,46,strategyPrediction,{"strategyPrediction":"Pick what gave the opponent the least points"},,,,,,,,,,,,,,,,,
[{"page_index":0,"viewing_time":645}],645,instructions,112,2.1.0,359388,e2brtg5dde,692638df063c96e069476515,6932661eef396488942b5157,46,,,,,,,,,,,,,,,,,,,
,,html-keyboard-response,113,2.0.0,363436,e2brtg5dde,692638df063c96e069476515,6932661eef396488942b5157,46,socialPredictionGame,,,,{"R":10,"P":5,"S":3,"T":5},3,5,10,5,SH,Purple,def,E.B.,pess_inv,coop,1,0,4047.600000143051,
,1615,html-keyboard-response,114,2.0.0,365052,e2brtg5dde,692638df063c96e069476515,6932661eef396488942b5157,46,feedbackTrial,d,,,,,,,,,,,,,,,,,
                    <div style="text-align:center;">
                        <p style="color:red; font-size:24px;">Incorrect</p><p>You still have 40 points.</p>
                        <p> Press any key to continue. </p>
                    </div>
                    
,,html-keyboard-response,115,2.0.0,367558,e2brtg5dde,692638df063c96e069476515,6932661eef396488942b5157,46,socialPredictionGame,,,,{"R":10,"P":5,"S":7,"T":8},7,8,10,5,HG,Purple,def,E.B.,pess_inv,def,1,1,2504.7000000476837,
,629,html-keyboard-response,116,2.0.0,368187,e2brtg5dde,692638df063c96e069476515,6932661eef396488942b5157,46,feedbackTrial,d,,,,,,,,,,,,,,,,,
                    <div style="text-align:center;">
                        <p style="color:green; font-size:24px;">Correct!</p><p>You now have 41 points.</p>
                        <p> Press any key to continue. </p>
                    </div>
                    
,,html-keyboard-response,117,2.0.0,371349,e2brtg5dde,692638df063c96e069476515,6932661eef396488942b5157,46,socialPredictionGame,,,,{"R":10,"P":5,"S":0,"T":12},0,12,10,5,PD,Purple,def,E.B.,pess_inv,coop,2,0,3160.600000143051,
,759,html-keyboard-response,118,2.0.0,372108,e2brtg5dde,692638df063c96e069476515,6932661eef396488942b5157,46,feedbackTrial,f,,,,,,,,,,,,,,,,,
                    <div style="text-align:center;">
                        <p style="color:red; font-size:24px;">Incorrect</p><p>You still have 41 points.</p>
                        <p> Press any key to continue. </p>
                    </div>
                    
,,html-keyboard-response,119,2.0.0,376644,e2brtg5dde,692638df063c96e069476515,6932661eef396488942b5157,46,socialPredictionGame,,,,{"R":10,"P":5,"S":10,"T":5},10,5,10,5,HG,Blue,coop,E.B.,pess_inv,def,2,0,4535,
,533,html-keyboard-response,120,2.0.0,377178,e2brtg5dde,692638df063c96e069476515,6932661eef396488942b5157,46,feedbackTrial,d,,,,,,,,,,,,,,,,,
                    <div style="text-align:center;">
                        <p style="color:red; font-size:24px;">Incorrect</p><p>You still have 41 points.</p>
                        <p> Press any key to continue. </p>
                    </div>
                    
,,html-keyboard-response,121,2.0.0,380157,e2brtg5dde,692638df063c96e069476515,6932661eef396488942b5157,46,socialPredictionGame,,,,{"R":10,"P":5,"S":10,"T":15},10,15,10,5,SG,Purple,def,E.B.,pess_inv,def,3,1,2977.5,
,543,html-keyboard-response,122,2.0.0,380700,e2brtg5dde,692638df063c96e069476515,6932661eef396488942b5157,46,feedbackTrial,d,,,,,,,,,,,,,,,,,
                    <div style="text-align:center;">
                        <p style="color:green; font-size:24px;">Correct!</p><p>You now have 42 points.</p>
                        <p> Press any key to continue. </p>
                    </div>
                    
,,html-keyboard-response,123,2.0.0,388581,e2brtg5dde,692638df063c96e069476515,6932661eef396488942b5157,46,socialPredictionGame,,,,{"R":10,"P":5,"S":0,"T":8},0,8,10,5,SH,Purple,def,E.B.,pess_inv,coop,1,0,7880.099999904633,
,535,html-keyboard-response,124,2.0.0,389116,e2brtg5dde,692638df063c96e069476515,6932661eef396488942b5157,46,feedbackTrial,d,,,,,,,,,,,,,,,,,
                    <div style="text-align:center;">
                        <p style="color:red; font-size:24px;">Incorrect</p><p>You still have 42 points.</p>
                        <p> Press any key to continue. </p>
                    </div>
                    
,,html-keyboard-response,125,2.0.0,392539,e2brtg5dde,692638df063c96e069476515,6932661eef396488942b5157,46,socialPredictionGame,,,,{"R":10,"P":5,"S":0,"T":5},0,5,10,5,SH,Blue,coop,E.B.,pess_inv,coop,1,1,3421.5,
,465,html-keyboard-response,126,2.0.0,393005,e2brtg5dde,692638df063c96e069476515,6932661eef396488942b5157,46,feedbackTrial,d,,,,,,,,,,,,,,,,,
                    <div style="text-align:center;">
                        <p style="color:green; font-size:24px;">Correct!</p><p>You now have 43 points.</p>
                        <p> Press any key to continue. </p>
                    </div>
                    
,,html-keyboard-response,127,2.0.0,395351,e2brtg5dde,692638df063c96e069476515,6932661eef396488942b5157,46,socialPredictionGame,,,,{"R":10,"P":5,"S":7,"T":12},7,12,10,5,SG,Blue,coop,E.B.,pess_inv,def,1,0,2345.2999999523163,
,390,html-keyboard-response,128,2.0.0,395741,e2brtg5dde,692638df063c96e069476515,6932661eef396488942b5157,46,feedbackTrial,d,,,,,,,,,,,,,,,,,
                    <div style="text-align:center;">
                        <p style="color:red; font-size:24px;">Incorrect</p><p>You still have 43 points.</p>
                        <p> Press any key to continue. </p>
                    </div>
                    
,,html-keyboard-response,129,2.0.0,397485,e2brtg5dde,692638df063c96e069476515,6932661eef396488942b5157,46,socialPredictionGame,,,,{"R":10,"P":5,"S":0,"T":15},0,15,10,5,PD,Purple,def,E.B.,pess_inv,coop,2,0,1743.2999999523163,
,472,html-keyboard-response,130,2.0.0,397958,e2brtg5dde,692638df063c96e069476515,6932661eef396488942b5157,46,feedbackTrial,d,,,,,,,,,,,,,,,,,
                    <div style="text-align:center;">
                        <p style="color:red; font-size:24px;">Incorrect</p><p>You still have 43 points.</p>
                        <p> Press any key to continue. </p>
                    </div>
                    
,,html-keyboard-response,131,2.0.0,399853,e2brtg5dde,692638df063c96e069476515,6932661eef396488942b5157,46,socialPredictionGame,,,,{"R":10,"P":5,"S":10,"T":8},10,8,10,5,HG,Blue,coop,E.B.,pess_inv,def,1,0,1893.2999999523163,
,471,html-keyboard-response,132,2.0.0,400324,e2brtg5dde,692638df063c96e069476515,6932661eef396488942b5157,46,feedbackTrial,d,,,,,,,,,,,,,,,,,
                    <div style="text-align:center;">
                        <p style="color:red; font-size:24px;">Incorrect</p><p>You still have 43 points.</p>
                        <p> Press any key to continue. </p>
                    </div>
                    
,,html-keyboard-response,133,2.0.0,404548,e2brtg5dde,692638df063c96e069476515,6932661eef396488942b5157,46,socialPredictionGame,,,,{"R":10,"P":5,"S":7,"T":5},7,5,10,5,HG,Purple,def,E.B.,pess_inv,def,1,1,4222.899999856949,
,519,html-keyboard-response,134,2.0.0,405067,e2brtg5dde,692638df063c96e069476515,6932661eef396488942b5157,46,feedbackTrial,d,,,,,,,,,,,,,,,,,
                    <div style="text-align:center;">
                        <p style="color:green; font-size:24px;">Correct!</p><p>You now have 44 points.</p>
                        <p> Press any key to continue. </p>
                    </div>
                    
,,html-keyboard-response,135,2.0.0,408198,e2brtg5dde,692638df063c96e069476515,6932661eef396488942b5157,46,socialPredictionGame,,,,{"R":10,"P":5,"S":3,"T":15},3,15,10,5,PD,Purple,def,E.B.,pess_inv,coop,1,0,3130,
,342,html-keyboard-response,136,2.0.0,408540,e2brtg5dde,692638df063c96e069476515,6932661eef396488942b5157,46,feedbackTrial,d,,,,,,,,,,,,,,,,,
                    <div style="text-align:center;">
                        <p style="color:red; font-size:24px;">Incorrect</p><p>You still have 44 points.</p>
                        <p> Press any key to continue. </p>
                    </div>
                    
,,html-keyboard-response,137,2.0.0,409996,e2brtg5dde,692638df063c96e069476515,6932661eef396488942b5157,46,socialPredictionGame,,,,{"R":10,"P":5,"S":3,"T":8},3,8,10,5,SH,Blue,coop,E.B.,pess_inv,coop,1,1,1454.9000000953674,
,415,html-keyboard-response,138,2.0.0,410411,e2brtg5dde,692638df063c96e069476515,6932661eef396488942b5157,46,feedbackTrial,d,,,,,,,,,,,,,,,,,
                    <div style="text-align:center;">
                        <p style="color:green; font-size:24px;">Correct!</p><p>You now have 45 points.</p>
                        <p> Press any key to continue. </p>
                    </div>
                    
,,html-keyboard-response,139,2.0.0,413100,e2brtg5dde,692638df063c96e069476515,6932661eef396488942b5157,46,socialPredictionGame,,,,{"R":10,"P":5,"S":7,"T":15},7,15,10,5,SG,Blue,coop,E.B.,pess_inv,def,1,0,2687.7999999523163,
,575,html-keyboard-response,140,2.0.0,413675,e2brtg5dde,692638df063c96e069476515,6932661eef396488942b5157,46,feedbackTrial,d,,,,,,,,,,,,,,,,,
                    <div style="text-align:center;">
                        <p style="color:red; font-size:24px;">Incorrect</p><p>You still have 45 points.</p>
                        <p> Press any key to continue. </p>
                    </div>
                    
,,html-keyboard-response,141,2.0.0,415492,e2brtg5dde,692638df063c96e069476515,6932661eef396488942b5157,46,socialPredictionGame,,,,{"R":10,"P":5,"S":3,"T":12},3,12,10,5,PD,Purple,def,E.B.,pess_inv,coop,1,0,1815.7000000476837,
,386,html-keyboard-response,142,2.0.0,415878,e2brtg5dde,692638df063c96e069476515,6932661eef396488942b5157,46,feedbackTrial,d,,,,,,,,,,,,,,,,,
                    <div style="text-align:center;">
                        <p style="color:red; font-size:24px;">Incorrect</p><p>You still have 45 points.</p>
                        <p> Press any key to continue. </p>
                    </div>
                    
,,html-keyboard-response,143,2.0.0,417758,e2brtg5dde,692638df063c96e069476515,6932661eef396488942b5157,46,socialPredictionGame,,,,{"R":10,"P":5,"S":10,"T":12},10,12,10,5,SG,Purple,def,E.B.,pess_inv,def,1,1,1879.0999999046326,
,344,html-keyboard-response,144,2.0.0,418102,e2brtg5dde,692638df063c96e069476515,6932661eef396488942b5157,46,feedbackTrial,d,,,,,,,,,,,,,,,,,
                    <div style="text-align:center;">
                        <p style="color:green; font-size:24px;">Correct!</p><p>You now have 46 points.</p>
                        <p> Press any key to continue. </p>
                    </div>
                    
,3495,survey-html-form,145,2.1.0,421598,e2brtg5dde,692638df063c96e069476515,6932661eef396488942b5157,46,strategyPrediction,{"strategyPrediction":"no idea"},,,,,,,,,,,,,,,,,
,3910,survey-html-form,146,2.1.0,425509,e2brtg5dde,692638df063c96e069476515,6932661eef396488942b5157,46,demographics,{"age":"42","gender":"Male"},,,,,,,,,,,,,,,,,
,1768,survey-html-form,147,2.1.0,427278,e2brtg5dde,692638df063c96e069476515,6932661eef396488942b5157,46,technical,{"technical":"","feedback":""},,,,,,,,,,,,,,,,,
