view_history,rt,trial_type,trial_index,plugin_version,time_elapsed,subjectID,studyID,sessionID,overallBonusPoints,task,response,question_order,success,Matrix,S,T,R,P,GameType,choice,GivenAns,Player,PlayerType,CorrAns,confidence,ScoreNum,time_on_trial,stimulus
"[{""page_index"":0,""viewing_time"":4254},{""page_index"":1,""viewing_time"":7958}]",12212.0,instructions,0,2.1.0,12232,t3c1w4ookl,693e609928541f4126f49c4b,693e8c93db743ea9b30162cd,34,,,,,,,,,,,,,,,,,,,
"[{""page_index"":0,""viewing_time"":151641}]",151642.0,instructions,1,2.1.0,163878,t3c1w4ookl,693e609928541f4126f49c4b,693e8c93db743ea9b30162cd,34,,,,,,,,,,,,,,,,,,,
"[{""page_index"":0,""viewing_time"":7466}]",7466.0,instructions,2,2.1.0,171348,t3c1w4ookl,693e609928541f4126f49c4b,693e8c93db743ea9b30162cd,34,,,,,,,,,,,,,,,,,,,
,216972.0,survey-multi-choice,3,,388328,t3c1w4ookl,693e609928541f4126f49c4b,693e8c93db743ea9b30162cd,34,comprehensionCheck,"{""task"":""Choose the option the anonymized participant chose"",""incentive"":""Yes—they received bonuses based on their performance""}","[0,1]",,,,,,,,,,,,,,,,
,35523.0,fullscreen,4,2.1.0,424867,t3c1w4ookl,693e609928541f4126f49c4b,693e8c93db743ea9b30162cd,34,,,,True,,,,,,,,,,,,,,,
"[{""page_index"":0,""viewing_time"":88870}]",88870.0,instructions,5,2.1.0,513739,t3c1w4ookl,693e609928541f4126f49c4b,693e8c93db743ea9b30162cd,34,,,,,,,,,,,,,,,,,,,
,,html-keyboard-response,6,2.0.0,545575,t3c1w4ookl,693e609928541f4126f49c4b,693e8c93db743ea9b30162cd,34,playOwnGame,,,,"{""R"":10,""P"":5,""S"":10,""T"":5}",10.0,5.0,10.0,5.0,HG,Blue,def,,,,,,,
,,html-keyboard-response,7,2.0.0,570455,t3c1w4ookl,693e609928541f4126f49c4b,693e8c93db743ea9b30162cd,34,playOwnGame,,,,"{""R"":10,""P"":5,""S"":10,""T"":15}",10.0,15.0,10.0,5.0,SG,Red,coop,,,,,,,
,,html-keyboard-response,8,2.0.0,597643,t3c1w4ookl,693e609928541f4126f49c4b,693e8c93db743ea9b30162cd,34,playOwnGame,,,,"{""R"":10,""P"":5,""S"":3,""T"":8}",3.0,8.0,10.0,5.0,SH,Red,coop,,,,,,,
,,html-keyboard-response,9,2.0.0,611933,t3c1w4ookl,693e609928541f4126f49c4b,693e8c93db743ea9b30162cd,34,playOwnGame,,,,"{""R"":10,""P"":5,""S"":3,""T"":12}",3.0,12.0,10.0,5.0,PD,Red,coop,,,,,,,
"[{""page_index"":0,""viewing_time"":3700}]",3700.0,instructions,10,2.1.0,615634,t3c1w4ookl,693e609928541f4126f49c4b,693e8c93db743ea9b30162cd,34,,,,,,,,,,,,,,,,,,,
,,html-keyboard-response,11,2.0.0,628008,t3c1w4ookl,693e609928541f4126f49c4b,693e8c93db743ea9b30162cd,34,socialPredictionGame,,,,"{""R"":10,""P"":5,""S"":3,""T"":12}",3.0,12.0,10.0,5.0,PD,Blue,coop,E.B.,pess_inv,coop,8.0,1.0,12372.0,
,3594.0,html-keyboard-response,12,2.0.0,631604,t3c1w4ookl,693e609928541f4126f49c4b,693e8c93db743ea9b30162cd,34,feedbackTrial,j,,,,,,,,,,,,,,,,,"
                    <div style=""text-align:center;"">
                        <p style=""color:green; font-size:24px;"">Correct!</p><p>You now have 1 points.</p>
                        <p> Press any key to continue. </p>
                    </div>
                    "
,,html-keyboard-response,13,2.0.0,639100,t3c1w4ookl,693e609928541f4126f49c4b,693e8c93db743ea9b30162cd,34,socialPredictionGame,,,,"{""R"":10,""P"":5,""S"":7,""T"":12}",7.0,12.0,10.0,5.0,SG,Blue,coop,E.B.,pess_inv,def,8.0,0.0,7494.699999988079,
,2511.0,html-keyboard-response,14,2.0.0,641613,t3c1w4ookl,693e609928541f4126f49c4b,693e8c93db743ea9b30162cd,34,feedbackTrial,h,,,,,,,,,,,,,,,,,"
                    <div style=""text-align:center;"">
                        <p style=""color:red; font-size:24px;"">Incorrect</p><p>You still have 1 points.</p>
                        <p> Press any key to continue. </p>
                    </div>
                    "
,,html-keyboard-response,15,2.0.0,653485,t3c1w4ookl,693e609928541f4126f49c4b,693e8c93db743ea9b30162cd,34,socialPredictionGame,,,,"{""R"":10,""P"":5,""S"":10,""T"":15}",10.0,15.0,10.0,5.0,SG,Purple,def,E.B.,pess_inv,def,7.0,1.0,11870.5,
,1678.0,html-keyboard-response,16,2.0.0,655164,t3c1w4ookl,693e609928541f4126f49c4b,693e8c93db743ea9b30162cd,34,feedbackTrial,k,,,,,,,,,,,,,,,,,"
                    <div style=""text-align:center;"">
                        <p style=""color:green; font-size:24px;"">Correct!</p><p>You now have 2 points.</p>
                        <p> Press any key to continue. </p>
                    </div>
                    "
,,html-keyboard-response,17,2.0.0,662022,t3c1w4ookl,693e609928541f4126f49c4b,693e8c93db743ea9b30162cd,34,socialPredictionGame,,,,"{""R"":10,""P"":5,""S"":3,""T"":5}",3.0,5.0,10.0,5.0,SH,Blue,coop,E.B.,pess_inv,coop,8.0,1.0,6856.300000011921,
,1427.0,html-keyboard-response,18,2.0.0,663450,t3c1w4ookl,693e609928541f4126f49c4b,693e8c93db743ea9b30162cd,34,feedbackTrial,j,,,,,,,,,,,,,,,,,"
                    <div style=""text-align:center;"">
                        <p style=""color:green; font-size:24px;"">Correct!</p><p>You now have 3 points.</p>
                        <p> Press any key to continue. </p>
                    </div>
                    "
,,html-keyboard-response,19,2.0.0,670454,t3c1w4ookl,693e609928541f4126f49c4b,693e8c93db743ea9b30162cd,34,socialPredictionGame,,,,"{""R"":10,""P"":5,""S"":7,""T"":5}",7.0,5.0,10.0,5.0,HG,Blue,coop,E.B.,pess_inv,def,7.0,0.0,7002.699999988079,
,1336.0,html-keyboard-response,20,2.0.0,671792,t3c1w4ookl,693e609928541f4126f49c4b,693e8c93db743ea9b30162cd,34,feedbackTrial,j,,,,,,,,,,,,,,,,,"
                    <div style=""text-align:center;"">
                        <p style=""color:red; font-size:24px;"">Incorrect</p><p>You still have 3 points.</p>
                        <p> Press any key to continue. </p>
                    </div>
                    "
,,html-keyboard-response,21,2.0.0,677072,t3c1w4ookl,693e609928541f4126f49c4b,693e8c93db743ea9b30162cd,34,socialPredictionGame,,,,"{""R"":10,""P"":5,""S"":10,""T"":8}",10.0,8.0,10.0,5.0,HG,Purple,def,E.B.,pess_inv,def,7.0,1.0,5278.699999988079,
,1309.0,html-keyboard-response,22,2.0.0,678383,t3c1w4ookl,693e609928541f4126f49c4b,693e8c93db743ea9b30162cd,34,feedbackTrial,j,,,,,,,,,,,,,,,,,"
                    <div style=""text-align:center;"">
                        <p style=""color:green; font-size:24px;"">Correct!</p><p>You now have 4 points.</p>
                        <p> Press any key to continue. </p>
                    </div>
                    "
,,html-keyboard-response,23,2.0.0,688954,t3c1w4ookl,693e609928541f4126f49c4b,693e8c93db743ea9b30162cd,34,socialPredictionGame,,,,"{""R"":10,""P"":5,""S"":3,""T"":15}",3.0,15.0,10.0,5.0,PD,Purple,def,E.B.,pess_inv,coop,7.0,0.0,10569.899999976158,
,1206.0,html-keyboard-response,24,2.0.0,690161,t3c1w4ookl,693e609928541f4126f49c4b,693e8c93db743ea9b30162cd,34,feedbackTrial,j,,,,,,,,,,,,,,,,,"
                    <div style=""text-align:center;"">
                        <p style=""color:red; font-size:24px;"">Incorrect</p><p>You still have 4 points.</p>
                        <p> Press any key to continue. </p>
                    </div>
                    "
,,html-keyboard-response,25,2.0.0,696360,t3c1w4ookl,693e609928541f4126f49c4b,693e8c93db743ea9b30162cd,34,socialPredictionGame,,,,"{""R"":10,""P"":5,""S"":7,""T"":15}",7.0,15.0,10.0,5.0,SG,Blue,coop,E.B.,pess_inv,def,7.0,0.0,6197.0,
,1249.0,html-keyboard-response,26,2.0.0,697610,t3c1w4ookl,693e609928541f4126f49c4b,693e8c93db743ea9b30162cd,34,feedbackTrial,j,,,,,,,,,,,,,,,,,"
                    <div style=""text-align:center;"">
                        <p style=""color:red; font-size:24px;"">Incorrect</p><p>You still have 4 points.</p>
                        <p> Press any key to continue. </p>
                    </div>
                    "
,,html-keyboard-response,27,2.0.0,703789,t3c1w4ookl,693e609928541f4126f49c4b,693e8c93db743ea9b30162cd,34,socialPredictionGame,,,,"{""R"":10,""P"":5,""S"":0,""T"":15}",0.0,15.0,10.0,5.0,PD,Blue,coop,E.B.,pess_inv,coop,7.0,1.0,6177.599999964237,
,1200.0,html-keyboard-response,28,2.0.0,704991,t3c1w4ookl,693e609928541f4126f49c4b,693e8c93db743ea9b30162cd,34,feedbackTrial,j,,,,,,,,,,,,,,,,,"
                    <div style=""text-align:center;"">
                        <p style=""color:green; font-size:24px;"">Correct!</p><p>You now have 5 points.</p>
                        <p> Press any key to continue. </p>
                    </div>
                    "
,,html-keyboard-response,29,2.0.0,711969,t3c1w4ookl,693e609928541f4126f49c4b,693e8c93db743ea9b30162cd,34,socialPredictionGame,,,,"{""R"":10,""P"":5,""S"":3,""T"":8}",3.0,8.0,10.0,5.0,SH,Purple,def,E.B.,pess_inv,coop,7.0,0.0,6976.299999952316,
,1054.0,html-keyboard-response,30,2.0.0,713025,t3c1w4ookl,693e609928541f4126f49c4b,693e8c93db743ea9b30162cd,34,feedbackTrial,j,,,,,,,,,,,,,,,,,"
                    <div style=""text-align:center;"">
                        <p style=""color:red; font-size:24px;"">Incorrect</p><p>You still have 5 points.</p>
                        <p> Press any key to continue. </p>
                    </div>
                    "
,,html-keyboard-response,31,2.0.0,741797,t3c1w4ookl,693e609928541f4126f49c4b,693e8c93db743ea9b30162cd,34,socialPredictionGame,,,,"{""R"":10,""P"":5,""S"":7,""T"":8}",7.0,8.0,10.0,5.0,HG,Blue,coop,E.B.,pess_inv,def,7.0,0.0,28770.89999997616,
,1137.0,html-keyboard-response,32,2.0.0,742935,t3c1w4ookl,693e609928541f4126f49c4b,693e8c93db743ea9b30162cd,34,feedbackTrial,h,,,,,,,,,,,,,,,,,"
                    <div style=""text-align:center;"">
                        <p style=""color:red; font-size:24px;"">Incorrect</p><p>You still have 5 points.</p>
                        <p> Press any key to continue. </p>
                    </div>
                    "
,,html-keyboard-response,33,2.0.0,748471,t3c1w4ookl,693e609928541f4126f49c4b,693e8c93db743ea9b30162cd,34,socialPredictionGame,,,,"{""R"":10,""P"":5,""S"":10,""T"":12}",10.0,12.0,10.0,5.0,SG,Purple,def,E.B.,pess_inv,def,7.0,1.0,5534.699999988079,
,1057.0,html-keyboard-response,34,2.0.0,749530,t3c1w4ookl,693e609928541f4126f49c4b,693e8c93db743ea9b30162cd,34,feedbackTrial,j,,,,,,,,,,,,,,,,,"
                    <div style=""text-align:center;"">
                        <p style=""color:green; font-size:24px;"">Correct!</p><p>You now have 6 points.</p>
                        <p> Press any key to continue. </p>
                    </div>
                    "
,,html-keyboard-response,35,2.0.0,755029,t3c1w4ookl,693e609928541f4126f49c4b,693e8c93db743ea9b30162cd,34,socialPredictionGame,,,,"{""R"":10,""P"":5,""S"":0,""T"":5}",0.0,5.0,10.0,5.0,SH,Blue,coop,E.B.,pess_inv,coop,7.0,1.0,5496.899999976158,
,11554.0,html-keyboard-response,36,2.0.0,766584,t3c1w4ookl,693e609928541f4126f49c4b,693e8c93db743ea9b30162cd,34,feedbackTrial,j,,,,,,,,,,,,,,,,,"
                    <div style=""text-align:center;"">
                        <p style=""color:green; font-size:24px;"">Correct!</p><p>You now have 7 points.</p>
                        <p> Press any key to continue. </p>
                    </div>
                    "
,,html-keyboard-response,37,2.0.0,781883,t3c1w4ookl,693e609928541f4126f49c4b,693e8c93db743ea9b30162cd,34,socialPredictionGame,,,,"{""R"":10,""P"":5,""S"":0,""T"":12}",0.0,12.0,10.0,5.0,PD,Purple,def,E.B.,pess_inv,coop,7.0,0.0,15297.299999952316,
,1195.0,html-keyboard-response,38,2.0.0,783079,t3c1w4ookl,693e609928541f4126f49c4b,693e8c93db743ea9b30162cd,34,feedbackTrial,j,,,,,,,,,,,,,,,,,"
                    <div style=""text-align:center;"">
                        <p style=""color:red; font-size:24px;"">Incorrect</p><p>You still have 7 points.</p>
                        <p> Press any key to continue. </p>
                    </div>
                    "
,,html-keyboard-response,39,2.0.0,794471,t3c1w4ookl,693e609928541f4126f49c4b,693e8c93db743ea9b30162cd,34,socialPredictionGame,,,,"{""R"":10,""P"":5,""S"":10,""T"":5}",10.0,5.0,10.0,5.0,HG,Blue,coop,E.B.,pess_inv,def,8.0,0.0,11390.599999964235,
,1229.0,html-keyboard-response,40,2.0.0,795701,t3c1w4ookl,693e609928541f4126f49c4b,693e8c93db743ea9b30162cd,34,feedbackTrial,j,,,,,,,,,,,,,,,,,"
                    <div style=""text-align:center;"">
                        <p style=""color:red; font-size:24px;"">Incorrect</p><p>You still have 7 points.</p>
                        <p> Press any key to continue. </p>
                    </div>
                    "
,,html-keyboard-response,41,2.0.0,803924,t3c1w4ookl,693e609928541f4126f49c4b,693e8c93db743ea9b30162cd,34,socialPredictionGame,,,,"{""R"":10,""P"":5,""S"":0,""T"":8}",0.0,8.0,10.0,5.0,SH,Blue,coop,E.B.,pess_inv,coop,7.0,1.0,8222.199999988079,
,1656.0,html-keyboard-response,42,2.0.0,805581,t3c1w4ookl,693e609928541f4126f49c4b,693e8c93db743ea9b30162cd,34,feedbackTrial,h,,,,,,,,,,,,,,,,,"
                    <div style=""text-align:center;"">
                        <p style=""color:green; font-size:24px;"">Correct!</p><p>You now have 8 points.</p>
                        <p> Press any key to continue. </p>
                    </div>
                    "
,295161.0,survey-html-form,43,2.1.0,1100745,t3c1w4ookl,693e609928541f4126f49c4b,693e8c93db743ea9b30162cd,34,strategyPrediction,"{""strategyPrediction"":""The count of the score which favor the two parties""}",,,,,,,,,,,,,,,,,
"[{""page_index"":0,""viewing_time"":2057}]",2057.0,instructions,44,2.1.0,1102804,t3c1w4ookl,693e609928541f4126f49c4b,693e8c93db743ea9b30162cd,34,,,,,,,,,,,,,,,,,,,
,,html-keyboard-response,45,2.0.0,1111100,t3c1w4ookl,693e609928541f4126f49c4b,693e8c93db743ea9b30162cd,34,socialPredictionGame,,,,"{""R"":10,""P"":5,""S"":7,""T"":15}",7.0,15.0,10.0,5.0,SG,Blue,coop,G.P.,opt_inv,coop,7.0,1.0,8294.800000011921,
,1624.0,html-keyboard-response,46,2.0.0,1112726,t3c1w4ookl,693e609928541f4126f49c4b,693e8c93db743ea9b30162cd,34,feedbackTrial,j,,,,,,,,,,,,,,,,,"
                    <div style=""text-align:center;"">
                        <p style=""color:green; font-size:24px;"">Correct!</p><p>You now have 9 points.</p>
                        <p> Press any key to continue. </p>
                    </div>
                    "
,,html-keyboard-response,47,2.0.0,1120469,t3c1w4ookl,693e609928541f4126f49c4b,693e8c93db743ea9b30162cd,34,socialPredictionGame,,,,"{""R"":10,""P"":5,""S"":10,""T"":8}",10.0,8.0,10.0,5.0,HG,Green,def,G.P.,opt_inv,def,7.0,1.0,7741.899999976158,
,1258.0,html-keyboard-response,48,2.0.0,1121728,t3c1w4ookl,693e609928541f4126f49c4b,693e8c93db743ea9b30162cd,34,feedbackTrial,j,,,,,,,,,,,,,,,,,"
                    <div style=""text-align:center;"">
                        <p style=""color:green; font-size:24px;"">Correct!</p><p>You now have 10 points.</p>
                        <p> Press any key to continue. </p>
                    </div>
                    "
,,html-keyboard-response,49,2.0.0,1130153,t3c1w4ookl,693e609928541f4126f49c4b,693e8c93db743ea9b30162cd,34,socialPredictionGame,,,,"{""R"":10,""P"":5,""S"":10,""T"":12}",10.0,12.0,10.0,5.0,SG,Blue,coop,G.P.,opt_inv,coop,7.0,1.0,8423.5,
,1139.0,html-keyboard-response,50,2.0.0,1131294,t3c1w4ookl,693e609928541f4126f49c4b,693e8c93db743ea9b30162cd,34,feedbackTrial,j,,,,,,,,,,,,,,,,,"
                    <div style=""text-align:center;"">
                        <p style=""color:green; font-size:24px;"">Correct!</p><p>You now have 11 points.</p>
                        <p> Press any key to continue. </p>
                    </div>
                    "
,,html-keyboard-response,51,2.0.0,1141380,t3c1w4ookl,693e609928541f4126f49c4b,693e8c93db743ea9b30162cd,34,socialPredictionGame,,,,"{""R"":10,""P"":5,""S"":3,""T"":8}",3.0,8.0,10.0,5.0,SH,Green,def,G.P.,opt_inv,def,7.0,1.0,10084.600000023842,
,1167.0,html-keyboard-response,52,2.0.0,1142549,t3c1w4ookl,693e609928541f4126f49c4b,693e8c93db743ea9b30162cd,34,feedbackTrial,j,,,,,,,,,,,,,,,,,"
                    <div style=""text-align:center;"">
                        <p style=""color:green; font-size:24px;"">Correct!</p><p>You now have 12 points.</p>
                        <p> Press any key to continue. </p>
                    </div>
                    "
,,html-keyboard-response,53,2.0.0,1147693,t3c1w4ookl,693e609928541f4126f49c4b,693e8c93db743ea9b30162cd,34,socialPredictionGame,,,,"{""R"":10,""P"":5,""S"":0,""T"":5}",0.0,5.0,10.0,5.0,SH,Blue,coop,G.P.,opt_inv,def,7.0,0.0,5142.100000023842,
,1066.0,html-keyboard-response,54,2.0.0,1148760,t3c1w4ookl,693e609928541f4126f49c4b,693e8c93db743ea9b30162cd,34,feedbackTrial,j,,,,,,,,,,,,,,,,,"
                    <div style=""text-align:center;"">
                        <p style=""color:red; font-size:24px;"">Incorrect</p><p>You still have 12 points.</p>
                        <p> Press any key to continue. </p>
                    </div>
                    "
,,html-keyboard-response,55,2.0.0,1157360,t3c1w4ookl,693e609928541f4126f49c4b,693e8c93db743ea9b30162cd,34,socialPredictionGame,,,,"{""R"":10,""P"":5,""S"":0,""T"":8}",0.0,8.0,10.0,5.0,SH,Green,def,G.P.,opt_inv,def,7.0,1.0,8599.300000011921,
,1017.0,html-keyboard-response,56,2.0.0,1158379,t3c1w4ookl,693e609928541f4126f49c4b,693e8c93db743ea9b30162cd,34,feedbackTrial,j,,,,,,,,,,,,,,,,,"
                    <div style=""text-align:center;"">
                        <p style=""color:green; font-size:24px;"">Correct!</p><p>You now have 13 points.</p>
                        <p> Press any key to continue. </p>
                    </div>
                    "
,,html-keyboard-response,57,2.0.0,1163046,t3c1w4ookl,693e609928541f4126f49c4b,693e8c93db743ea9b30162cd,34,socialPredictionGame,,,,"{""R"":10,""P"":5,""S"":7,""T"":5}",7.0,5.0,10.0,5.0,HG,Blue,coop,G.P.,opt_inv,def,7.0,0.0,4665.200000047684,
,1050.0,html-keyboard-response,58,2.0.0,1164097,t3c1w4ookl,693e609928541f4126f49c4b,693e8c93db743ea9b30162cd,34,feedbackTrial,j,,,,,,,,,,,,,,,,,"
                    <div style=""text-align:center;"">
                        <p style=""color:red; font-size:24px;"">Incorrect</p><p>You still have 13 points.</p>
                        <p> Press any key to continue. </p>
                    </div>
                    "
,,html-keyboard-response,59,2.0.0,1170997,t3c1w4ookl,693e609928541f4126f49c4b,693e8c93db743ea9b30162cd,34,socialPredictionGame,,,,"{""R"":10,""P"":5,""S"":0,""T"":12}",0.0,12.0,10.0,5.0,PD,Blue,coop,G.P.,opt_inv,coop,7.0,1.0,6898.199999988079,
,1214.0,html-keyboard-response,60,2.0.0,1172212,t3c1w4ookl,693e609928541f4126f49c4b,693e8c93db743ea9b30162cd,34,feedbackTrial,j,,,,,,,,,,,,,,,,,"
                    <div style=""text-align:center;"">
                        <p style=""color:green; font-size:24px;"">Correct!</p><p>You now have 14 points.</p>
                        <p> Press any key to continue. </p>
                    </div>
                    "
,,html-keyboard-response,61,2.0.0,1179636,t3c1w4ookl,693e609928541f4126f49c4b,693e8c93db743ea9b30162cd,34,socialPredictionGame,,,,"{""R"":10,""P"":5,""S"":10,""T"":15}",10.0,15.0,10.0,5.0,SG,Green,def,G.P.,opt_inv,coop,8.0,0.0,7422.5,
,1120.0,html-keyboard-response,62,2.0.0,1180757,t3c1w4ookl,693e609928541f4126f49c4b,693e8c93db743ea9b30162cd,34,feedbackTrial,j,,,,,,,,,,,,,,,,,"
                    <div style=""text-align:center;"">
                        <p style=""color:red; font-size:24px;"">Incorrect</p><p>You still have 14 points.</p>
                        <p> Press any key to continue. </p>
                    </div>
                    "
,,html-keyboard-response,63,2.0.0,1187286,t3c1w4ookl,693e609928541f4126f49c4b,693e8c93db743ea9b30162cd,34,socialPredictionGame,,,,"{""R"":10,""P"":5,""S"":3,""T"":5}",3.0,5.0,10.0,5.0,SH,Blue,coop,G.P.,opt_inv,def,7.0,0.0,6527.600000023842,
,979.0,html-keyboard-response,64,2.0.0,1188267,t3c1w4ookl,693e609928541f4126f49c4b,693e8c93db743ea9b30162cd,34,feedbackTrial,j,,,,,,,,,,,,,,,,,"
                    <div style=""text-align:center;"">
                        <p style=""color:red; font-size:24px;"">Incorrect</p><p>You still have 14 points.</p>
                        <p> Press any key to continue. </p>
                    </div>
                    "
,,html-keyboard-response,65,2.0.0,1193696,t3c1w4ookl,693e609928541f4126f49c4b,693e8c93db743ea9b30162cd,34,socialPredictionGame,,,,"{""R"":10,""P"":5,""S"":0,""T"":15}",0.0,15.0,10.0,5.0,PD,Blue,coop,G.P.,opt_inv,coop,7.0,1.0,5428.0,
,1064.0,html-keyboard-response,66,2.0.0,1194762,t3c1w4ookl,693e609928541f4126f49c4b,693e8c93db743ea9b30162cd,34,feedbackTrial,j,,,,,,,,,,,,,,,,,"
                    <div style=""text-align:center;"">
                        <p style=""color:green; font-size:24px;"">Correct!</p><p>You now have 15 points.</p>
                        <p> Press any key to continue. </p>
                    </div>
                    "
,,html-keyboard-response,67,2.0.0,1199087,t3c1w4ookl,693e609928541f4126f49c4b,693e8c93db743ea9b30162cd,34,socialPredictionGame,,,,"{""R"":10,""P"":5,""S"":7,""T"":12}",7.0,12.0,10.0,5.0,SG,Green,def,G.P.,opt_inv,coop,8.0,0.0,4323.300000011921,
,957.0,html-keyboard-response,68,2.0.0,1200044,t3c1w4ookl,693e609928541f4126f49c4b,693e8c93db743ea9b30162cd,34,feedbackTrial,j,,,,,,,,,,,,,,,,,"
                    <div style=""text-align:center;"">
                        <p style=""color:red; font-size:24px;"">Incorrect</p><p>You still have 15 points.</p>
                        <p> Press any key to continue. </p>
                    </div>
                    "
,,html-keyboard-response,69,2.0.0,1204452,t3c1w4ookl,693e609928541f4126f49c4b,693e8c93db743ea9b30162cd,34,socialPredictionGame,,,,"{""R"":10,""P"":5,""S"":3,""T"":15}",3.0,15.0,10.0,5.0,PD,Green,def,G.P.,opt_inv,coop,7.0,0.0,4405.600000023842,
,931.0,html-keyboard-response,70,2.0.0,1205384,t3c1w4ookl,693e609928541f4126f49c4b,693e8c93db743ea9b30162cd,34,feedbackTrial,j,,,,,,,,,,,,,,,,,"
                    <div style=""text-align:center;"">
                        <p style=""color:red; font-size:24px;"">Incorrect</p><p>You still have 15 points.</p>
                        <p> Press any key to continue. </p>
                    </div>
                    "
,,html-keyboard-response,71,2.0.0,1209537,t3c1w4ookl,693e609928541f4126f49c4b,693e8c93db743ea9b30162cd,34,socialPredictionGame,,,,"{""R"":10,""P"":5,""S"":10,""T"":5}",10.0,5.0,10.0,5.0,HG,Green,def,G.P.,opt_inv,def,7.0,1.0,4151.0,
,889.0,html-keyboard-response,72,2.0.0,1210427,t3c1w4ookl,693e609928541f4126f49c4b,693e8c93db743ea9b30162cd,34,feedbackTrial,j,,,,,,,,,,,,,,,,,"
                    <div style=""text-align:center;"">
                        <p style=""color:green; font-size:24px;"">Correct!</p><p>You now have 16 points.</p>
                        <p> Press any key to continue. </p>
                    </div>
                    "
,,html-keyboard-response,73,2.0.0,1215335,t3c1w4ookl,693e609928541f4126f49c4b,693e8c93db743ea9b30162cd,34,socialPredictionGame,,,,"{""R"":10,""P"":5,""S"":3,""T"":12}",3.0,12.0,10.0,5.0,PD,Blue,coop,G.P.,opt_inv,coop,7.0,1.0,4906.400000035763,
,1222.0,html-keyboard-response,74,2.0.0,1216558,t3c1w4ookl,693e609928541f4126f49c4b,693e8c93db743ea9b30162cd,34,feedbackTrial,j,,,,,,,,,,,,,,,,,"
                    <div style=""text-align:center;"">
                        <p style=""color:green; font-size:24px;"">Correct!</p><p>You now have 17 points.</p>
                        <p> Press any key to continue. </p>
                    </div>
                    "
,,html-keyboard-response,75,2.0.0,1223492,t3c1w4ookl,693e609928541f4126f49c4b,693e8c93db743ea9b30162cd,34,socialPredictionGame,,,,"{""R"":10,""P"":5,""S"":7,""T"":8}",7.0,8.0,10.0,5.0,HG,Green,def,G.P.,opt_inv,def,7.0,1.0,6932.400000035763,
,1664.0,html-keyboard-response,76,2.0.0,1225157,t3c1w4ookl,693e609928541f4126f49c4b,693e8c93db743ea9b30162cd,34,feedbackTrial,j,,,,,,,,,,,,,,,,,"
                    <div style=""text-align:center;"">
                        <p style=""color:green; font-size:24px;"">Correct!</p><p>You now have 18 points.</p>
                        <p> Press any key to continue. </p>
                    </div>
                    "
,24408.0,survey-html-form,77,2.1.0,1249566,t3c1w4ookl,693e609928541f4126f49c4b,693e8c93db743ea9b30162cd,34,strategyPrediction,"{""strategyPrediction"":""He was just trying to choose side by side""}",,,,,,,,,,,,,,,,,
"[{""page_index"":0,""viewing_time"":2124}]",2124.0,instructions,78,2.1.0,1251692,t3c1w4ookl,693e609928541f4126f49c4b,693e8c93db743ea9b30162cd,34,,,,,,,,,,,,,,,,,,,
,,html-keyboard-response,79,2.0.0,1261825,t3c1w4ookl,693e609928541f4126f49c4b,693e8c93db743ea9b30162cd,34,socialPredictionGame,,,,"{""R"":10,""P"":5,""S"":0,""T"":8}",0.0,8.0,10.0,5.0,SH,Red,coop,F.A.,pess_nat,def,8.0,0.0,10132.0,
,1353.0,html-keyboard-response,80,2.0.0,1263179,t3c1w4ookl,693e609928541f4126f49c4b,693e8c93db743ea9b30162cd,34,feedbackTrial,k,,,,,,,,,,,,,,,,,"
                    <div style=""text-align:center;"">
                        <p style=""color:red; font-size:24px;"">Incorrect</p><p>You still have 18 points.</p>
                        <p> Press any key to continue. </p>
                    </div>
                    "
,,html-keyboard-response,81,2.0.0,1269174,t3c1w4ookl,693e609928541f4126f49c4b,693e8c93db743ea9b30162cd,34,socialPredictionGame,,,,"{""R"":10,""P"":5,""S"":3,""T"":5}",3.0,5.0,10.0,5.0,SH,Red,coop,F.A.,pess_nat,def,7.0,0.0,5993.400000035763,
,865.0,html-keyboard-response,82,2.0.0,1270040,t3c1w4ookl,693e609928541f4126f49c4b,693e8c93db743ea9b30162cd,34,feedbackTrial,j,,,,,,,,,,,,,,,,,"
                    <div style=""text-align:center;"">
                        <p style=""color:red; font-size:24px;"">Incorrect</p><p>You still have 18 points.</p>
                        <p> Press any key to continue. </p>
                    </div>
                    "
,,html-keyboard-response,83,2.0.0,1278000,t3c1w4ookl,693e609928541f4126f49c4b,693e8c93db743ea9b30162cd,34,socialPredictionGame,,,,"{""R"":10,""P"":5,""S"":10,""T"":15}",10.0,15.0,10.0,5.0,SG,Purple,def,F.A.,pess_nat,coop,7.0,0.0,7957.900000035763,
,920.0,html-keyboard-response,84,2.0.0,1278921,t3c1w4ookl,693e609928541f4126f49c4b,693e8c93db743ea9b30162cd,34,feedbackTrial,j,,,,,,,,,,,,,,,,,"
                    <div style=""text-align:center;"">
                        <p style=""color:red; font-size:24px;"">Incorrect</p><p>You still have 18 points.</p>
                        <p> Press any key to continue. </p>
                    </div>
                    "
,,html-keyboard-response,85,2.0.0,1284317,t3c1w4ookl,693e609928541f4126f49c4b,693e8c93db743ea9b30162cd,34,socialPredictionGame,,,,"{""R"":10,""P"":5,""S"":0,""T"":12}",0.0,12.0,10.0,5.0,PD,Red,coop,F.A.,pess_nat,def,7.0,0.0,5393.800000011921,
,954.0,html-keyboard-response,86,2.0.0,1285272,t3c1w4ookl,693e609928541f4126f49c4b,693e8c93db743ea9b30162cd,34,feedbackTrial,j,,,,,,,,,,,,,,,,,"
                    <div style=""text-align:center;"">
                        <p style=""color:red; font-size:24px;"">Incorrect</p><p>You still have 18 points.</p>
                        <p> Press any key to continue. </p>
                    </div>
                    "
,,html-keyboard-response,87,2.0.0,1290642,t3c1w4ookl,693e609928541f4126f49c4b,693e8c93db743ea9b30162cd,34,socialPredictionGame,,,,"{""R"":10,""P"":5,""S"":10,""T"":8}",10.0,8.0,10.0,5.0,HG,Purple,def,F.A.,pess_nat,coop,7.0,0.0,5368.599999964237,
,1097.0,html-keyboard-response,88,2.0.0,1291740,t3c1w4ookl,693e609928541f4126f49c4b,693e8c93db743ea9b30162cd,34,feedbackTrial,j,,,,,,,,,,,,,,,,,"
                    <div style=""text-align:center;"">
                        <p style=""color:red; font-size:24px;"">Incorrect</p><p>You still have 18 points.</p>
                        <p> Press any key to continue. </p>
                    </div>
                    "
,,html-keyboard-response,89,2.0.0,1296720,t3c1w4ookl,693e609928541f4126f49c4b,693e8c93db743ea9b30162cd,34,socialPredictionGame,,,,"{""R"":10,""P"":5,""S"":3,""T"":8}",3.0,8.0,10.0,5.0,SH,Purple,def,F.A.,pess_nat,def,7.0,1.0,4978.300000011921,
,1316.0,html-keyboard-response,90,2.0.0,1298037,t3c1w4ookl,693e609928541f4126f49c4b,693e8c93db743ea9b30162cd,34,feedbackTrial,j,,,,,,,,,,,,,,,,,"
                    <div style=""text-align:center;"">
                        <p style=""color:green; font-size:24px;"">Correct!</p><p>You now have 19 points.</p>
                        <p> Press any key to continue. </p>
                    </div>
                    "
,,html-keyboard-response,91,2.0.0,1305724,t3c1w4ookl,693e609928541f4126f49c4b,693e8c93db743ea9b30162cd,34,socialPredictionGame,,,,"{""R"":10,""P"":5,""S"":7,""T"":12}",7.0,12.0,10.0,5.0,SG,Red,coop,F.A.,pess_nat,coop,7.0,1.0,7685.300000011921,
,1155.0,html-keyboard-response,92,2.0.0,1306880,t3c1w4ookl,693e609928541f4126f49c4b,693e8c93db743ea9b30162cd,34,feedbackTrial,j,,,,,,,,,,,,,,,,,"
                    <div style=""text-align:center;"">
                        <p style=""color:green; font-size:24px;"">Correct!</p><p>You now have 20 points.</p>
                        <p> Press any key to continue. </p>
                    </div>
                    "
,,html-keyboard-response,93,2.0.0,1312899,t3c1w4ookl,693e609928541f4126f49c4b,693e8c93db743ea9b30162cd,34,socialPredictionGame,,,,"{""R"":10,""P"":5,""S"":7,""T"":15}",7.0,15.0,10.0,5.0,SG,Purple,def,F.A.,pess_nat,coop,7.0,0.0,6017.600000023842,
,1215.0,html-keyboard-response,94,2.0.0,1314115,t3c1w4ookl,693e609928541f4126f49c4b,693e8c93db743ea9b30162cd,34,feedbackTrial,j,,,,,,,,,,,,,,,,,"
                    <div style=""text-align:center;"">
                        <p style=""color:red; font-size:24px;"">Incorrect</p><p>You still have 20 points.</p>
                        <p> Press any key to continue. </p>
                    </div>
                    "
,,html-keyboard-response,95,2.0.0,1318554,t3c1w4ookl,693e609928541f4126f49c4b,693e8c93db743ea9b30162cd,34,socialPredictionGame,,,,"{""R"":10,""P"":5,""S"":3,""T"":15}",3.0,15.0,10.0,5.0,PD,Purple,def,F.A.,pess_nat,def,7.0,1.0,4437.800000011921,
,1073.0,html-keyboard-response,96,2.0.0,1319629,t3c1w4ookl,693e609928541f4126f49c4b,693e8c93db743ea9b30162cd,34,feedbackTrial,j,,,,,,,,,,,,,,,,,"
                    <div style=""text-align:center;"">
                        <p style=""color:green; font-size:24px;"">Correct!</p><p>You now have 21 points.</p>
                        <p> Press any key to continue. </p>
                    </div>
                    "
,,html-keyboard-response,97,2.0.0,1325721,t3c1w4ookl,693e609928541f4126f49c4b,693e8c93db743ea9b30162cd,34,socialPredictionGame,,,,"{""R"":10,""P"":5,""S"":0,""T"":5}",0.0,5.0,10.0,5.0,SH,Red,coop,F.A.,pess_nat,def,7.0,0.0,6090.400000035763,
,1142.0,html-keyboard-response,98,2.0.0,1326864,t3c1w4ookl,693e609928541f4126f49c4b,693e8c93db743ea9b30162cd,34,feedbackTrial,j,,,,,,,,,,,,,,,,,"
                    <div style=""text-align:center;"">
                        <p style=""color:red; font-size:24px;"">Incorrect</p><p>You still have 21 points.</p>
                        <p> Press any key to continue. </p>
                    </div>
                    "
,,html-keyboard-response,99,2.0.0,1332519,t3c1w4ookl,693e609928541f4126f49c4b,693e8c93db743ea9b30162cd,34,socialPredictionGame,,,,"{""R"":10,""P"":5,""S"":10,""T"":12}",10.0,12.0,10.0,5.0,SG,Red,coop,F.A.,pess_nat,coop,8.0,1.0,5653.400000035763,
,1196.0,html-keyboard-response,100,2.0.0,1333716,t3c1w4ookl,693e609928541f4126f49c4b,693e8c93db743ea9b30162cd,34,feedbackTrial,j,,,,,,,,,,,,,,,,,"
                    <div style=""text-align:center;"">
                        <p style=""color:green; font-size:24px;"">Correct!</p><p>You now have 22 points.</p>
                        <p> Press any key to continue. </p>
                    </div>
                    "
,,html-keyboard-response,101,2.0.0,1355085,t3c1w4ookl,693e609928541f4126f49c4b,693e8c93db743ea9b30162cd,34,socialPredictionGame,,,,"{""R"":10,""P"":5,""S"":7,""T"":5}",7.0,5.0,10.0,5.0,HG,Purple,def,F.A.,pess_nat,coop,8.0,0.0,21367.89999997616,
,1039.0,html-keyboard-response,102,2.0.0,1356126,t3c1w4ookl,693e609928541f4126f49c4b,693e8c93db743ea9b30162cd,34,feedbackTrial,j,,,,,,,,,,,,,,,,,"
                    <div style=""text-align:center;"">
                        <p style=""color:red; font-size:24px;"">Incorrect</p><p>You still have 22 points.</p>
                        <p> Press any key to continue. </p>
                    </div>
                    "
,,html-keyboard-response,103,2.0.0,1360976,t3c1w4ookl,693e609928541f4126f49c4b,693e8c93db743ea9b30162cd,34,socialPredictionGame,,,,"{""R"":10,""P"":5,""S"":0,""T"":15}",0.0,15.0,10.0,5.0,PD,Red,coop,F.A.,pess_nat,def,7.0,0.0,4848.5,
,1378.0,html-keyboard-response,104,2.0.0,1362355,t3c1w4ookl,693e609928541f4126f49c4b,693e8c93db743ea9b30162cd,34,feedbackTrial,j,,,,,,,,,,,,,,,,,"
                    <div style=""text-align:center;"">
                        <p style=""color:red; font-size:24px;"">Incorrect</p><p>You still have 22 points.</p>
                        <p> Press any key to continue. </p>
                    </div>
                    "
,,html-keyboard-response,105,2.0.0,1367115,t3c1w4ookl,693e609928541f4126f49c4b,693e8c93db743ea9b30162cd,34,socialPredictionGame,,,,"{""R"":10,""P"":5,""S"":3,""T"":12}",3.0,12.0,10.0,5.0,PD,Red,coop,F.A.,pess_nat,def,8.0,0.0,4758.600000023842,
,1071.0,html-keyboard-response,106,2.0.0,1368187,t3c1w4ookl,693e609928541f4126f49c4b,693e8c93db743ea9b30162cd,34,feedbackTrial,j,,,,,,,,,,,,,,,,,"
                    <div style=""text-align:center;"">
                        <p style=""color:red; font-size:24px;"">Incorrect</p><p>You still have 22 points.</p>
                        <p> Press any key to continue. </p>
                    </div>
                    "
,,html-keyboard-response,107,2.0.0,1372606,t3c1w4ookl,693e609928541f4126f49c4b,693e8c93db743ea9b30162cd,34,socialPredictionGame,,,,"{""R"":10,""P"":5,""S"":7,""T"":8}",7.0,8.0,10.0,5.0,HG,Red,coop,F.A.,pess_nat,coop,8.0,1.0,4417.0,
,1099.0,html-keyboard-response,108,2.0.0,1373707,t3c1w4ookl,693e609928541f4126f49c4b,693e8c93db743ea9b30162cd,34,feedbackTrial,j,,,,,,,,,,,,,,,,,"
                    <div style=""text-align:center;"">
                        <p style=""color:green; font-size:24px;"">Correct!</p><p>You now have 23 points.</p>
                        <p> Press any key to continue. </p>
                    </div>
                    "
,,html-keyboard-response,109,2.0.0,1378138,t3c1w4ookl,693e609928541f4126f49c4b,693e8c93db743ea9b30162cd,34,socialPredictionGame,,,,"{""R"":10,""P"":5,""S"":10,""T"":5}",10.0,5.0,10.0,5.0,HG,Purple,def,F.A.,pess_nat,coop,7.0,0.0,4429.899999976158,
,1000.0,html-keyboard-response,110,2.0.0,1379139,t3c1w4ookl,693e609928541f4126f49c4b,693e8c93db743ea9b30162cd,34,feedbackTrial,j,,,,,,,,,,,,,,,,,"
                    <div style=""text-align:center;"">
                        <p style=""color:red; font-size:24px;"">Incorrect</p><p>You still have 23 points.</p>
                        <p> Press any key to continue. </p>
                    </div>
                    "
,36345.0,survey-html-form,111,2.1.0,1415485,t3c1w4ookl,693e609928541f4126f49c4b,693e8c93db743ea9b30162cd,34,strategyPrediction,"{""strategyPrediction"":""I do not know the strategy the person used ""}",,,,,,,,,,,,,,,,,
"[{""page_index"":0,""viewing_time"":1318}]",1318.0,instructions,112,2.1.0,1416805,t3c1w4ookl,693e609928541f4126f49c4b,693e8c93db743ea9b30162cd,34,,,,,,,,,,,,,,,,,,,
,,html-keyboard-response,113,2.0.0,1422596,t3c1w4ookl,693e609928541f4126f49c4b,693e8c93db743ea9b30162cd,34,socialPredictionGame,,,,"{""R"":10,""P"":5,""S"":3,""T"":8}",3.0,8.0,10.0,5.0,SH,Purple,coop,D.T.,opt_nat,coop,8.0,1.0,5788.800000011921,
,1305.0,html-keyboard-response,114,2.0.0,1423901,t3c1w4ookl,693e609928541f4126f49c4b,693e8c93db743ea9b30162cd,34,feedbackTrial,j,,,,,,,,,,,,,,,,,"
                    <div style=""text-align:center;"">
                        <p style=""color:green; font-size:24px;"">Correct!</p><p>You now have 24 points.</p>
                        <p> Press any key to continue. </p>
                    </div>
                    "
,,html-keyboard-response,115,2.0.0,1428884,t3c1w4ookl,693e609928541f4126f49c4b,693e8c93db743ea9b30162cd,34,socialPredictionGame,,,,"{""R"":10,""P"":5,""S"":7,""T"":12}",7.0,12.0,10.0,5.0,SG,Green,def,D.T.,opt_nat,def,8.0,1.0,4981.599999964237,
,1066.0,html-keyboard-response,116,2.0.0,1429951,t3c1w4ookl,693e609928541f4126f49c4b,693e8c93db743ea9b30162cd,34,feedbackTrial,j,,,,,,,,,,,,,,,,,"
                    <div style=""text-align:center;"">
                        <p style=""color:green; font-size:24px;"">Correct!</p><p>You now have 25 points.</p>
                        <p> Press any key to continue. </p>
                    </div>
                    "
,,html-keyboard-response,117,2.0.0,1435825,t3c1w4ookl,693e609928541f4126f49c4b,693e8c93db743ea9b30162cd,34,socialPredictionGame,,,,"{""R"":10,""P"":5,""S"":10,""T"":12}",10.0,12.0,10.0,5.0,SG,Purple,coop,D.T.,opt_nat,def,8.0,0.0,5872.5,
,1008.0,html-keyboard-response,118,2.0.0,1436834,t3c1w4ookl,693e609928541f4126f49c4b,693e8c93db743ea9b30162cd,34,feedbackTrial,j,,,,,,,,,,,,,,,,,"
                    <div style=""text-align:center;"">
                        <p style=""color:red; font-size:24px;"">Incorrect</p><p>You still have 25 points.</p>
                        <p> Press any key to continue. </p>
                    </div>
                    "
,,html-keyboard-response,119,2.0.0,1446000,t3c1w4ookl,693e609928541f4126f49c4b,693e8c93db743ea9b30162cd,34,socialPredictionGame,,,,"{""R"":10,""P"":5,""S"":10,""T"":15}",10.0,15.0,10.0,5.0,SG,Green,def,D.T.,opt_nat,def,8.0,1.0,9164.400000035765,
,989.0,html-keyboard-response,120,2.0.0,1446991,t3c1w4ookl,693e609928541f4126f49c4b,693e8c93db743ea9b30162cd,34,feedbackTrial,j,,,,,,,,,,,,,,,,,"
                    <div style=""text-align:center;"">
                        <p style=""color:green; font-size:24px;"">Correct!</p><p>You now have 26 points.</p>
                        <p> Press any key to continue. </p>
                    </div>
                    "
,,html-keyboard-response,121,2.0.0,1450892,t3c1w4ookl,693e609928541f4126f49c4b,693e8c93db743ea9b30162cd,34,socialPredictionGame,,,,"{""R"":10,""P"":5,""S"":10,""T"":8}",10.0,8.0,10.0,5.0,HG,Purple,coop,D.T.,opt_nat,coop,8.0,1.0,3900.299999952316,
,902.0,html-keyboard-response,122,2.0.0,1451796,t3c1w4ookl,693e609928541f4126f49c4b,693e8c93db743ea9b30162cd,34,feedbackTrial,j,,,,,,,,,,,,,,,,,"
                    <div style=""text-align:center;"">
                        <p style=""color:green; font-size:24px;"">Correct!</p><p>You now have 27 points.</p>
                        <p> Press any key to continue. </p>
                    </div>
                    "
,,html-keyboard-response,123,2.0.0,1455185,t3c1w4ookl,693e609928541f4126f49c4b,693e8c93db743ea9b30162cd,34,socialPredictionGame,,,,"{""R"":10,""P"":5,""S"":10,""T"":5}",10.0,5.0,10.0,5.0,HG,Green,def,D.T.,opt_nat,coop,7.0,0.0,3387.5,
,749.0,html-keyboard-response,124,2.0.0,1455934,t3c1w4ookl,693e609928541f4126f49c4b,693e8c93db743ea9b30162cd,34,feedbackTrial,j,,,,,,,,,,,,,,,,,"
                    <div style=""text-align:center;"">
                        <p style=""color:red; font-size:24px;"">Incorrect</p><p>You still have 27 points.</p>
                        <p> Press any key to continue. </p>
                    </div>
                    "
,,html-keyboard-response,125,2.0.0,1460484,t3c1w4ookl,693e609928541f4126f49c4b,693e8c93db743ea9b30162cd,34,socialPredictionGame,,,,"{""R"":10,""P"":5,""S"":7,""T"":15}",7.0,15.0,10.0,5.0,SG,Green,def,D.T.,opt_nat,def,7.0,1.0,4548.199999988079,
,902.0,html-keyboard-response,126,2.0.0,1461387,t3c1w4ookl,693e609928541f4126f49c4b,693e8c93db743ea9b30162cd,34,feedbackTrial,j,,,,,,,,,,,,,,,,,"
                    <div style=""text-align:center;"">
                        <p style=""color:green; font-size:24px;"">Correct!</p><p>You now have 28 points.</p>
                        <p> Press any key to continue. </p>
                    </div>
                    "
,,html-keyboard-response,127,2.0.0,1468009,t3c1w4ookl,693e609928541f4126f49c4b,693e8c93db743ea9b30162cd,34,socialPredictionGame,,,,"{""R"":10,""P"":5,""S"":0,""T"":5}",0.0,5.0,10.0,5.0,SH,Purple,coop,D.T.,opt_nat,coop,7.0,1.0,6620.599999964237,
,1006.0,html-keyboard-response,128,2.0.0,1469016,t3c1w4ookl,693e609928541f4126f49c4b,693e8c93db743ea9b30162cd,34,feedbackTrial,j,,,,,,,,,,,,,,,,,"
                    <div style=""text-align:center;"">
                        <p style=""color:green; font-size:24px;"">Correct!</p><p>You now have 29 points.</p>
                        <p> Press any key to continue. </p>
                    </div>
                    "
,,html-keyboard-response,129,2.0.0,1474194,t3c1w4ookl,693e609928541f4126f49c4b,693e8c93db743ea9b30162cd,34,socialPredictionGame,,,,"{""R"":10,""P"":5,""S"":3,""T"":15}",3.0,15.0,10.0,5.0,PD,Green,def,D.T.,opt_nat,def,8.0,1.0,5176.099999964237,
,939.0,html-keyboard-response,130,2.0.0,1475135,t3c1w4ookl,693e609928541f4126f49c4b,693e8c93db743ea9b30162cd,34,feedbackTrial,j,,,,,,,,,,,,,,,,,"
                    <div style=""text-align:center;"">
                        <p style=""color:green; font-size:24px;"">Correct!</p><p>You now have 30 points.</p>
                        <p> Press any key to continue. </p>
                    </div>
                    "
,,html-keyboard-response,131,2.0.0,1480136,t3c1w4ookl,693e609928541f4126f49c4b,693e8c93db743ea9b30162cd,34,socialPredictionGame,,,,"{""R"":10,""P"":5,""S"":0,""T"":12}",0.0,12.0,10.0,5.0,PD,Purple,coop,D.T.,opt_nat,def,8.0,0.0,5000.199999988079,
,925.0,html-keyboard-response,132,2.0.0,1481063,t3c1w4ookl,693e609928541f4126f49c4b,693e8c93db743ea9b30162cd,34,feedbackTrial,j,,,,,,,,,,,,,,,,,"
                    <div style=""text-align:center;"">
                        <p style=""color:red; font-size:24px;"">Incorrect</p><p>You still have 30 points.</p>
                        <p> Press any key to continue. </p>
                    </div>
                    "
,,html-keyboard-response,133,2.0.0,1485764,t3c1w4ookl,693e609928541f4126f49c4b,693e8c93db743ea9b30162cd,34,socialPredictionGame,,,,"{""R"":10,""P"":5,""S"":0,""T"":8}",0.0,8.0,10.0,5.0,SH,Purple,coop,D.T.,opt_nat,coop,8.0,1.0,4699.300000011921,
,1028.0,html-keyboard-response,134,2.0.0,1486793,t3c1w4ookl,693e609928541f4126f49c4b,693e8c93db743ea9b30162cd,34,feedbackTrial,j,,,,,,,,,,,,,,,,,"
                    <div style=""text-align:center;"">
                        <p style=""color:green; font-size:24px;"">Correct!</p><p>You now have 31 points.</p>
                        <p> Press any key to continue. </p>
                    </div>
                    "
,,html-keyboard-response,135,2.0.0,1496257,t3c1w4ookl,693e609928541f4126f49c4b,693e8c93db743ea9b30162cd,34,socialPredictionGame,,,,"{""R"":10,""P"":5,""S"":0,""T"":15}",0.0,15.0,10.0,5.0,PD,Purple,coop,D.T.,opt_nat,def,8.0,0.0,9462.700000047684,
,919.0,html-keyboard-response,136,2.0.0,1497178,t3c1w4ookl,693e609928541f4126f49c4b,693e8c93db743ea9b30162cd,34,feedbackTrial,j,,,,,,,,,,,,,,,,,"
                    <div style=""text-align:center;"">
                        <p style=""color:red; font-size:24px;"">Incorrect</p><p>You still have 31 points.</p>
                        <p> Press any key to continue. </p>
                    </div>
                    "
,,html-keyboard-response,137,2.0.0,1502736,t3c1w4ookl,693e609928541f4126f49c4b,693e8c93db743ea9b30162cd,34,socialPredictionGame,,,,"{""R"":10,""P"":5,""S"":7,""T"":8}",7.0,8.0,10.0,5.0,HG,Purple,coop,D.T.,opt_nat,coop,8.0,1.0,5556.800000011921,
,1285.0,html-keyboard-response,138,2.0.0,1504023,t3c1w4ookl,693e609928541f4126f49c4b,693e8c93db743ea9b30162cd,34,feedbackTrial,j,,,,,,,,,,,,,,,,,"
                    <div style=""text-align:center;"">
                        <p style=""color:green; font-size:24px;"">Correct!</p><p>You now have 32 points.</p>
                        <p> Press any key to continue. </p>
                    </div>
                    "
,,html-keyboard-response,139,2.0.0,1508322,t3c1w4ookl,693e609928541f4126f49c4b,693e8c93db743ea9b30162cd,34,socialPredictionGame,,,,"{""R"":10,""P"":5,""S"":7,""T"":5}",7.0,5.0,10.0,5.0,HG,Green,def,D.T.,opt_nat,coop,8.0,0.0,4298.099999964237,
,793.0,html-keyboard-response,140,2.0.0,1509116,t3c1w4ookl,693e609928541f4126f49c4b,693e8c93db743ea9b30162cd,34,feedbackTrial,k,,,,,,,,,,,,,,,,,"
                    <div style=""text-align:center;"">
                        <p style=""color:red; font-size:24px;"">Incorrect</p><p>You still have 32 points.</p>
                        <p> Press any key to continue. </p>
                    </div>
                    "
,,html-keyboard-response,141,2.0.0,1513928,t3c1w4ookl,693e609928541f4126f49c4b,693e8c93db743ea9b30162cd,34,socialPredictionGame,,,,"{""R"":10,""P"":5,""S"":3,""T"":12}",3.0,12.0,10.0,5.0,PD,Green,def,D.T.,opt_nat,def,8.0,1.0,4811.0,
,1528.0,html-keyboard-response,142,2.0.0,1515457,t3c1w4ookl,693e609928541f4126f49c4b,693e8c93db743ea9b30162cd,34,feedbackTrial,j,,,,,,,,,,,,,,,,,"
                    <div style=""text-align:center;"">
                        <p style=""color:green; font-size:24px;"">Correct!</p><p>You now have 33 points.</p>
                        <p> Press any key to continue. </p>
                    </div>
                    "
,,html-keyboard-response,143,2.0.0,1519433,t3c1w4ookl,693e609928541f4126f49c4b,693e8c93db743ea9b30162cd,34,socialPredictionGame,,,,"{""R"":10,""P"":5,""S"":3,""T"":5}",3.0,5.0,10.0,5.0,SH,Purple,coop,D.T.,opt_nat,coop,8.0,1.0,3973.399999976158,
,1079.0,html-keyboard-response,144,2.0.0,1520513,t3c1w4ookl,693e609928541f4126f49c4b,693e8c93db743ea9b30162cd,34,feedbackTrial,j,,,,,,,,,,,,,,,,,"
                    <div style=""text-align:center;"">
                        <p style=""color:green; font-size:24px;"">Correct!</p><p>You now have 34 points.</p>
                        <p> Press any key to continue. </p>
                    </div>
                    "
,33025.0,survey-html-form,145,2.1.0,1553539,t3c1w4ookl,693e609928541f4126f49c4b,693e8c93db743ea9b30162cd,34,strategyPrediction,"{""strategyPrediction"":""I could not phantom, i do not think the person had an actual strategy""}",,,,,,,,,,,,,,,,,
,6562.0,survey-html-form,146,2.1.0,1560104,t3c1w4ookl,693e609928541f4126f49c4b,693e8c93db743ea9b30162cd,34,demographics,"{""age"":""42"",""gender"":""Female""}",,,,,,,,,,,,,,,,,
,6685.0,survey-html-form,147,2.1.0,1566791,t3c1w4ookl,693e609928541f4126f49c4b,693e8c93db743ea9b30162cd,34,technical,"{""technical"":""no"",""feedback"":""no""}",,,,,,,,,,,,,,,,,
