view_history,rt,trial_type,trial_index,plugin_version,time_elapsed,subjectID,studyID,sessionID,overallBonusPoints,task,response,question_order,success,Matrix,S,T,R,P,GameType,choice,GivenAns,Player,PlayerType,CorrAns,confidence,ScoreNum,time_on_trial,stimulus
"[{""page_index"":0,""viewing_time"":4011},{""page_index"":1,""viewing_time"":1804}]",5816.0,instructions,0,2.1.0,5824,uagabu9yd9,692638df063c96e069476515,693256ebf0e6fff290db9982,38,,,,,,,,,,,,,,,,,,,
"[{""page_index"":0,""viewing_time"":19712}]",19712.0,instructions,1,2.1.0,25540,uagabu9yd9,692638df063c96e069476515,693256ebf0e6fff290db9982,38,,,,,,,,,,,,,,,,,,,
"[{""page_index"":0,""viewing_time"":4227}]",4227.0,instructions,2,2.1.0,29769,uagabu9yd9,692638df063c96e069476515,693256ebf0e6fff290db9982,38,,,,,,,,,,,,,,,,,,,
,95658.0,survey-multi-choice,3,,125434,uagabu9yd9,692638df063c96e069476515,693256ebf0e6fff290db9982,38,comprehensionCheck,"{""task"":""Choose the option the anonymized participant chose"",""incentive"":""Yes—they received bonuses based on their performance""}","[0,1]",,,,,,,,,,,,,,,,
,3074.0,fullscreen,4,2.1.0,129536,uagabu9yd9,692638df063c96e069476515,693256ebf0e6fff290db9982,38,,,,True,,,,,,,,,,,,,,,
"[{""page_index"":0,""viewing_time"":9629}]",9629.0,instructions,5,2.1.0,139167,uagabu9yd9,692638df063c96e069476515,693256ebf0e6fff290db9982,38,,,,,,,,,,,,,,,,,,,
,,html-keyboard-response,6,2.0.0,176899,uagabu9yd9,692638df063c96e069476515,693256ebf0e6fff290db9982,38,playOwnGame,,,,"{""R"":10,""P"":5,""S"":7,""T"":15}",7.0,15.0,10.0,5.0,SG,Green,def,,,,,,,
,,html-keyboard-response,7,2.0.0,196010,uagabu9yd9,692638df063c96e069476515,693256ebf0e6fff290db9982,38,playOwnGame,,,,"{""R"":10,""P"":5,""S"":10,""T"":8}",10.0,8.0,10.0,5.0,HG,Blue,coop,,,,,,,
,,html-keyboard-response,8,2.0.0,208885,uagabu9yd9,692638df063c96e069476515,693256ebf0e6fff290db9982,38,playOwnGame,,,,"{""R"":10,""P"":5,""S"":0,""T"":12}",0.0,12.0,10.0,5.0,PD,Green,def,,,,,,,
,,html-keyboard-response,9,2.0.0,224172,uagabu9yd9,692638df063c96e069476515,693256ebf0e6fff290db9982,38,playOwnGame,,,,"{""R"":10,""P"":5,""S"":3,""T"":5}",3.0,5.0,10.0,5.0,SH,Green,def,,,,,,,
"[{""page_index"":0,""viewing_time"":3914}]",3914.0,instructions,10,2.1.0,228088,uagabu9yd9,692638df063c96e069476515,693256ebf0e6fff290db9982,38,,,,,,,,,,,,,,,,,,,
,,html-keyboard-response,11,2.0.0,268697,uagabu9yd9,692638df063c96e069476515,693256ebf0e6fff290db9982,38,socialPredictionGame,,,,"{""R"":10,""P"":5,""S"":3,""T"":15}",3.0,15.0,10.0,5.0,PD,Purple,def,D.T.,opt_nat,def,9.0,1.0,40605.60000000149,
,5667.0,html-keyboard-response,12,2.0.0,274367,uagabu9yd9,692638df063c96e069476515,693256ebf0e6fff290db9982,38,feedbackTrial, ,,,,,,,,,,,,,,,,,"
                    <div style=""text-align:center;"">
                        <p style=""color:green; font-size:24px;"">Correct!</p><p>You now have 1 points.</p>
                        <p> Press any key to continue. </p>
                    </div>
                    "
,,html-keyboard-response,13,2.0.0,301853,uagabu9yd9,692638df063c96e069476515,693256ebf0e6fff290db9982,38,socialPredictionGame,,,,"{""R"":10,""P"":5,""S"":10,""T"":12}",10.0,12.0,10.0,5.0,SG,Blue,coop,D.T.,opt_nat,def,9.0,0.0,27484.29999999702,
,9703.0,html-keyboard-response,14,2.0.0,311558,uagabu9yd9,692638df063c96e069476515,693256ebf0e6fff290db9982,38,feedbackTrial, ,,,,,,,,,,,,,,,,,"
                    <div style=""text-align:center;"">
                        <p style=""color:red; font-size:24px;"">Incorrect</p><p>You still have 1 points.</p>
                        <p> Press any key to continue. </p>
                    </div>
                    "
,,html-keyboard-response,15,2.0.0,333272,uagabu9yd9,692638df063c96e069476515,693256ebf0e6fff290db9982,38,socialPredictionGame,,,,"{""R"":10,""P"":5,""S"":10,""T"":15}",10.0,15.0,10.0,5.0,SG,Purple,def,D.T.,opt_nat,def,8.0,1.0,21711.599999997765,
,3200.0,html-keyboard-response,16,2.0.0,336474,uagabu9yd9,692638df063c96e069476515,693256ebf0e6fff290db9982,38,feedbackTrial, ,,,,,,,,,,,,,,,,,"
                    <div style=""text-align:center;"">
                        <p style=""color:green; font-size:24px;"">Correct!</p><p>You now have 2 points.</p>
                        <p> Press any key to continue. </p>
                    </div>
                    "
,,html-keyboard-response,17,2.0.0,360294,uagabu9yd9,692638df063c96e069476515,693256ebf0e6fff290db9982,38,socialPredictionGame,,,,"{""R"":10,""P"":5,""S"":0,""T"":8}",0.0,8.0,10.0,5.0,SH,Purple,def,D.T.,opt_nat,coop,8.0,0.0,23817.10000000149,
,8255.0,html-keyboard-response,18,2.0.0,368550,uagabu9yd9,692638df063c96e069476515,693256ebf0e6fff290db9982,38,feedbackTrial, ,,,,,,,,,,,,,,,,,"
                    <div style=""text-align:center;"">
                        <p style=""color:red; font-size:24px;"">Incorrect</p><p>You still have 2 points.</p>
                        <p> Press any key to continue. </p>
                    </div>
                    "
,,html-keyboard-response,19,2.0.0,383651,uagabu9yd9,692638df063c96e069476515,693256ebf0e6fff290db9982,38,socialPredictionGame,,,,"{""R"":10,""P"":5,""S"":7,""T"":8}",7.0,8.0,10.0,5.0,HG,Blue,coop,D.T.,opt_nat,coop,9.0,1.0,15098.10000000149,
,2275.0,html-keyboard-response,20,2.0.0,385928,uagabu9yd9,692638df063c96e069476515,693256ebf0e6fff290db9982,38,feedbackTrial, ,,,,,,,,,,,,,,,,,"
                    <div style=""text-align:center;"">
                        <p style=""color:green; font-size:24px;"">Correct!</p><p>You now have 3 points.</p>
                        <p> Press any key to continue. </p>
                    </div>
                    "
,,html-keyboard-response,21,2.0.0,413712,uagabu9yd9,692638df063c96e069476515,693256ebf0e6fff290db9982,38,socialPredictionGame,,,,"{""R"":10,""P"":5,""S"":0,""T"":12}",0.0,12.0,10.0,5.0,PD,Purple,def,D.T.,opt_nat,def,8.0,1.0,27783.0,
,1142.0,html-keyboard-response,22,2.0.0,414856,uagabu9yd9,692638df063c96e069476515,693256ebf0e6fff290db9982,38,feedbackTrial,Control,,,,,,,,,,,,,,,,,"
                    <div style=""text-align:center;"">
                        <p style=""color:green; font-size:24px;"">Correct!</p><p>You now have 4 points.</p>
                        <p> Press any key to continue. </p>
                    </div>
                    "
,,html-keyboard-response,23,2.0.0,444600,uagabu9yd9,692638df063c96e069476515,693256ebf0e6fff290db9982,38,socialPredictionGame,,,,"{""R"":10,""P"":5,""S"":3,""T"":8}",3.0,8.0,10.0,5.0,SH,Blue,coop,D.T.,opt_nat,coop,8.0,1.0,29743.0,
,2442.0,html-keyboard-response,24,2.0.0,447043,uagabu9yd9,692638df063c96e069476515,693256ebf0e6fff290db9982,38,feedbackTrial, ,,,,,,,,,,,,,,,,,"
                    <div style=""text-align:center;"">
                        <p style=""color:green; font-size:24px;"">Correct!</p><p>You now have 5 points.</p>
                        <p> Press any key to continue. </p>
                    </div>
                    "
,,html-keyboard-response,25,2.0.0,492557,uagabu9yd9,692638df063c96e069476515,693256ebf0e6fff290db9982,38,socialPredictionGame,,,,"{""R"":10,""P"":5,""S"":3,""T"":12}",3.0,12.0,10.0,5.0,PD,Purple,def,D.T.,opt_nat,def,8.0,1.0,45511.60000000149,
,3025.0,html-keyboard-response,26,2.0.0,495584,uagabu9yd9,692638df063c96e069476515,693256ebf0e6fff290db9982,38,feedbackTrial, ,,,,,,,,,,,,,,,,,"
                    <div style=""text-align:center;"">
                        <p style=""color:green; font-size:24px;"">Correct!</p><p>You now have 6 points.</p>
                        <p> Press any key to continue. </p>
                    </div>
                    "
,,html-keyboard-response,27,2.0.0,517394,uagabu9yd9,692638df063c96e069476515,693256ebf0e6fff290db9982,38,socialPredictionGame,,,,"{""R"":10,""P"":5,""S"":7,""T"":15}",7.0,15.0,10.0,5.0,SG,Purple,def,D.T.,opt_nat,def,8.0,1.0,21808.39999999851,
,2504.0,html-keyboard-response,28,2.0.0,519900,uagabu9yd9,692638df063c96e069476515,693256ebf0e6fff290db9982,38,feedbackTrial, ,,,,,,,,,,,,,,,,,"
                    <div style=""text-align:center;"">
                        <p style=""color:green; font-size:24px;"">Correct!</p><p>You now have 7 points.</p>
                        <p> Press any key to continue. </p>
                    </div>
                    "
,,html-keyboard-response,29,2.0.0,538479,uagabu9yd9,692638df063c96e069476515,693256ebf0e6fff290db9982,38,socialPredictionGame,,,,"{""R"":10,""P"":5,""S"":0,""T"":15}",0.0,15.0,10.0,5.0,PD,Purple,def,D.T.,opt_nat,def,8.0,1.0,18577.20000000298,
,1269.0,html-keyboard-response,30,2.0.0,539750,uagabu9yd9,692638df063c96e069476515,693256ebf0e6fff290db9982,38,feedbackTrial, ,,,,,,,,,,,,,,,,,"
                    <div style=""text-align:center;"">
                        <p style=""color:green; font-size:24px;"">Correct!</p><p>You now have 8 points.</p>
                        <p> Press any key to continue. </p>
                    </div>
                    "
,,html-keyboard-response,31,2.0.0,587897,uagabu9yd9,692638df063c96e069476515,693256ebf0e6fff290db9982,38,socialPredictionGame,,,,"{""R"":10,""P"":5,""S"":3,""T"":5}",3.0,5.0,10.0,5.0,SH,Blue,coop,D.T.,opt_nat,coop,8.0,1.0,48144.300000000745,
,2490.0,html-keyboard-response,32,2.0.0,590389,uagabu9yd9,692638df063c96e069476515,693256ebf0e6fff290db9982,38,feedbackTrial, ,,,,,,,,,,,,,,,,,"
                    <div style=""text-align:center;"">
                        <p style=""color:green; font-size:24px;"">Correct!</p><p>You now have 9 points.</p>
                        <p> Press any key to continue. </p>
                    </div>
                    "
,,html-keyboard-response,33,2.0.0,610290,uagabu9yd9,692638df063c96e069476515,693256ebf0e6fff290db9982,38,socialPredictionGame,,,,"{""R"":10,""P"":5,""S"":10,""T"":5}",10.0,5.0,10.0,5.0,HG,Blue,coop,D.T.,opt_nat,coop,9.0,1.0,19898.199999999255,
,1437.0,html-keyboard-response,34,2.0.0,611729,uagabu9yd9,692638df063c96e069476515,693256ebf0e6fff290db9982,38,feedbackTrial, ,,,,,,,,,,,,,,,,,"
                    <div style=""text-align:center;"">
                        <p style=""color:green; font-size:24px;"">Correct!</p><p>You now have 10 points.</p>
                        <p> Press any key to continue. </p>
                    </div>
                    "
,,html-keyboard-response,35,2.0.0,635448,uagabu9yd9,692638df063c96e069476515,693256ebf0e6fff290db9982,38,socialPredictionGame,,,,"{""R"":10,""P"":5,""S"":7,""T"":12}",7.0,12.0,10.0,5.0,SG,Purple,def,D.T.,opt_nat,def,8.0,1.0,23716.699999999255,
,1401.0,html-keyboard-response,36,2.0.0,636851,uagabu9yd9,692638df063c96e069476515,693256ebf0e6fff290db9982,38,feedbackTrial, ,,,,,,,,,,,,,,,,,"
                    <div style=""text-align:center;"">
                        <p style=""color:green; font-size:24px;"">Correct!</p><p>You now have 11 points.</p>
                        <p> Press any key to continue. </p>
                    </div>
                    "
,,html-keyboard-response,37,2.0.0,678430,uagabu9yd9,692638df063c96e069476515,693256ebf0e6fff290db9982,38,socialPredictionGame,,,,"{""R"":10,""P"":5,""S"":7,""T"":5}",7.0,5.0,10.0,5.0,HG,Blue,coop,D.T.,opt_nat,coop,9.0,1.0,41577.300000000745,
,2905.0,html-keyboard-response,38,2.0.0,681336,uagabu9yd9,692638df063c96e069476515,693256ebf0e6fff290db9982,38,feedbackTrial, ,,,,,,,,,,,,,,,,,"
                    <div style=""text-align:center;"">
                        <p style=""color:green; font-size:24px;"">Correct!</p><p>You now have 12 points.</p>
                        <p> Press any key to continue. </p>
                    </div>
                    "
,,html-keyboard-response,39,2.0.0,719633,uagabu9yd9,692638df063c96e069476515,693256ebf0e6fff290db9982,38,socialPredictionGame,,,,"{""R"":10,""P"":5,""S"":0,""T"":5}",0.0,5.0,10.0,5.0,SH,Blue,coop,D.T.,opt_nat,coop,8.0,1.0,38294.300000000745,
,1984.0,html-keyboard-response,40,2.0.0,721618,uagabu9yd9,692638df063c96e069476515,693256ebf0e6fff290db9982,38,feedbackTrial, ,,,,,,,,,,,,,,,,,"
                    <div style=""text-align:center;"">
                        <p style=""color:green; font-size:24px;"">Correct!</p><p>You now have 13 points.</p>
                        <p> Press any key to continue. </p>
                    </div>
                    "
,,html-keyboard-response,41,2.0.0,748743,uagabu9yd9,692638df063c96e069476515,693256ebf0e6fff290db9982,38,socialPredictionGame,,,,"{""R"":10,""P"":5,""S"":10,""T"":8}",10.0,8.0,10.0,5.0,HG,Blue,coop,D.T.,opt_nat,coop,9.0,1.0,27124.099999997765,
,1935.0,html-keyboard-response,42,2.0.0,750680,uagabu9yd9,692638df063c96e069476515,693256ebf0e6fff290db9982,38,feedbackTrial, ,,,,,,,,,,,,,,,,,"
                    <div style=""text-align:center;"">
                        <p style=""color:green; font-size:24px;"">Correct!</p><p>You now have 14 points.</p>
                        <p> Press any key to continue. </p>
                    </div>
                    "
,75268.0,survey-html-form,43,2.1.0,825950,uagabu9yd9,692638df063c96e069476515,693256ebf0e6fff290db9982,38,strategyPrediction,"{""strategyPrediction"":""balancing risk and reward and maximizing potential gain""}",,,,,,,,,,,,,,,,,
"[{""page_index"":0,""viewing_time"":8618}]",8619.0,instructions,44,2.1.0,834570,uagabu9yd9,692638df063c96e069476515,693256ebf0e6fff290db9982,38,,,,,,,,,,,,,,,,,,,
,,html-keyboard-response,45,2.0.0,853119,uagabu9yd9,692638df063c96e069476515,693256ebf0e6fff290db9982,38,socialPredictionGame,,,,"{""R"":10,""P"":5,""S"":3,""T"":12}",3.0,12.0,10.0,5.0,PD,Blue,def,E.B.,pess_nat,def,8.0,1.0,18546.199999999255,
,2625.0,html-keyboard-response,46,2.0.0,855746,uagabu9yd9,692638df063c96e069476515,693256ebf0e6fff290db9982,38,feedbackTrial, ,,,,,,,,,,,,,,,,,"
                    <div style=""text-align:center;"">
                        <p style=""color:green; font-size:24px;"">Correct!</p><p>You now have 15 points.</p>
                        <p> Press any key to continue. </p>
                    </div>
                    "
,,html-keyboard-response,47,2.0.0,880540,uagabu9yd9,692638df063c96e069476515,693256ebf0e6fff290db9982,38,socialPredictionGame,,,,"{""R"":10,""P"":5,""S"":7,""T"":8}",7.0,8.0,10.0,5.0,HG,Red,coop,E.B.,pess_nat,coop,9.0,1.0,24791.39999999851,
,1526.0,html-keyboard-response,48,2.0.0,882067,uagabu9yd9,692638df063c96e069476515,693256ebf0e6fff290db9982,38,feedbackTrial, ,,,,,,,,,,,,,,,,,"
                    <div style=""text-align:center;"">
                        <p style=""color:green; font-size:24px;"">Correct!</p><p>You now have 16 points.</p>
                        <p> Press any key to continue. </p>
                    </div>
                    "
,,html-keyboard-response,49,2.0.0,906383,uagabu9yd9,692638df063c96e069476515,693256ebf0e6fff290db9982,38,socialPredictionGame,,,,"{""R"":10,""P"":5,""S"":3,""T"":8}",3.0,8.0,10.0,5.0,SH,Red,coop,E.B.,pess_nat,def,8.0,0.0,24315.400000002235,
,4049.0,html-keyboard-response,50,2.0.0,910434,uagabu9yd9,692638df063c96e069476515,693256ebf0e6fff290db9982,38,feedbackTrial, ,,,,,,,,,,,,,,,,,"
                    <div style=""text-align:center;"">
                        <p style=""color:red; font-size:24px;"">Incorrect</p><p>You still have 16 points.</p>
                        <p> Press any key to continue. </p>
                    </div>
                    "
,,html-keyboard-response,51,2.0.0,933493,uagabu9yd9,692638df063c96e069476515,693256ebf0e6fff290db9982,38,socialPredictionGame,,,,"{""R"":10,""P"":5,""S"":0,""T"":5}",0.0,5.0,10.0,5.0,SH,Blue,def,E.B.,pess_nat,def,9.0,1.0,23056.300000000745,
,1566.0,html-keyboard-response,52,2.0.0,935061,uagabu9yd9,692638df063c96e069476515,693256ebf0e6fff290db9982,38,feedbackTrial, ,,,,,,,,,,,,,,,,,"
                    <div style=""text-align:center;"">
                        <p style=""color:green; font-size:24px;"">Correct!</p><p>You now have 17 points.</p>
                        <p> Press any key to continue. </p>
                    </div>
                    "
,,html-keyboard-response,53,2.0.0,975072,uagabu9yd9,692638df063c96e069476515,693256ebf0e6fff290db9982,38,socialPredictionGame,,,,"{""R"":10,""P"":5,""S"":3,""T"":15}",3.0,15.0,10.0,5.0,PD,Blue,def,E.B.,pess_nat,def,8.0,1.0,40008.10000000149,
,1134.0,html-keyboard-response,54,2.0.0,976207,uagabu9yd9,692638df063c96e069476515,693256ebf0e6fff290db9982,38,feedbackTrial, ,,,,,,,,,,,,,,,,,"
                    <div style=""text-align:center;"">
                        <p style=""color:green; font-size:24px;"">Correct!</p><p>You now have 18 points.</p>
                        <p> Press any key to continue. </p>
                    </div>
                    "
,,html-keyboard-response,55,2.0.0,990269,uagabu9yd9,692638df063c96e069476515,693256ebf0e6fff290db9982,38,socialPredictionGame,,,,"{""R"":10,""P"":5,""S"":10,""T"":15}",10.0,15.0,10.0,5.0,SG,Red,coop,E.B.,pess_nat,coop,9.0,1.0,14059.800000000743,
,1271.0,html-keyboard-response,56,2.0.0,991542,uagabu9yd9,692638df063c96e069476515,693256ebf0e6fff290db9982,38,feedbackTrial, ,,,,,,,,,,,,,,,,,"
                    <div style=""text-align:center;"">
                        <p style=""color:green; font-size:24px;"">Correct!</p><p>You now have 19 points.</p>
                        <p> Press any key to continue. </p>
                    </div>
                    "
,,html-keyboard-response,57,2.0.0,1004871,uagabu9yd9,692638df063c96e069476515,693256ebf0e6fff290db9982,38,socialPredictionGame,,,,"{""R"":10,""P"":5,""S"":0,""T"":15}",0.0,15.0,10.0,5.0,PD,Blue,def,E.B.,pess_nat,def,9.0,1.0,13328.39999999851,
,1005.0,html-keyboard-response,58,2.0.0,1005878,uagabu9yd9,692638df063c96e069476515,693256ebf0e6fff290db9982,38,feedbackTrial, ,,,,,,,,,,,,,,,,,"
                    <div style=""text-align:center;"">
                        <p style=""color:green; font-size:24px;"">Correct!</p><p>You now have 20 points.</p>
                        <p> Press any key to continue. </p>
                    </div>
                    "
,,html-keyboard-response,59,2.0.0,1022746,uagabu9yd9,692638df063c96e069476515,693256ebf0e6fff290db9982,38,socialPredictionGame,,,,"{""R"":10,""P"":5,""S"":7,""T"":12}",7.0,12.0,10.0,5.0,SG,Blue,def,E.B.,pess_nat,coop,8.0,0.0,16865.300000000745,
,4231.0,html-keyboard-response,60,2.0.0,1026978,uagabu9yd9,692638df063c96e069476515,693256ebf0e6fff290db9982,38,feedbackTrial, ,,,,,,,,,,,,,,,,,"
                    <div style=""text-align:center;"">
                        <p style=""color:red; font-size:24px;"">Incorrect</p><p>You still have 20 points.</p>
                        <p> Press any key to continue. </p>
                    </div>
                    "
,,html-keyboard-response,61,2.0.0,1060509,uagabu9yd9,692638df063c96e069476515,693256ebf0e6fff290db9982,38,socialPredictionGame,,,,"{""R"":10,""P"":5,""S"":3,""T"":5}",3.0,5.0,10.0,5.0,SH,Blue,def,E.B.,pess_nat,def,9.0,1.0,33528.60000000149,
,1029.0,html-keyboard-response,62,2.0.0,1061540,uagabu9yd9,692638df063c96e069476515,693256ebf0e6fff290db9982,38,feedbackTrial, ,,,,,,,,,,,,,,,,,"
                    <div style=""text-align:center;"">
                        <p style=""color:green; font-size:24px;"">Correct!</p><p>You now have 21 points.</p>
                        <p> Press any key to continue. </p>
                    </div>
                    "
,,html-keyboard-response,63,2.0.0,1079205,uagabu9yd9,692638df063c96e069476515,693256ebf0e6fff290db9982,38,socialPredictionGame,,,,"{""R"":10,""P"":5,""S"":7,""T"":5}",7.0,5.0,10.0,5.0,HG,Red,coop,E.B.,pess_nat,coop,9.0,1.0,17663.39999999851,
,1454.0,html-keyboard-response,64,2.0.0,1080661,uagabu9yd9,692638df063c96e069476515,693256ebf0e6fff290db9982,38,feedbackTrial, ,,,,,,,,,,,,,,,,,"
                    <div style=""text-align:center;"">
                        <p style=""color:green; font-size:24px;"">Correct!</p><p>You now have 22 points.</p>
                        <p> Press any key to continue. </p>
                    </div>
                    "
,,html-keyboard-response,65,2.0.0,1099303,uagabu9yd9,692638df063c96e069476515,693256ebf0e6fff290db9982,38,socialPredictionGame,,,,"{""R"":10,""P"":5,""S"":7,""T"":15}",7.0,15.0,10.0,5.0,SG,Blue,def,E.B.,pess_nat,coop,8.0,0.0,18641.5,
,4955.0,html-keyboard-response,66,2.0.0,1104260,uagabu9yd9,692638df063c96e069476515,693256ebf0e6fff290db9982,38,feedbackTrial, ,,,,,,,,,,,,,,,,,"
                    <div style=""text-align:center;"">
                        <p style=""color:red; font-size:24px;"">Incorrect</p><p>You still have 22 points.</p>
                        <p> Press any key to continue. </p>
                    </div>
                    "
,,html-keyboard-response,67,2.0.0,1128790,uagabu9yd9,692638df063c96e069476515,693256ebf0e6fff290db9982,38,socialPredictionGame,,,,"{""R"":10,""P"":5,""S"":10,""T"":12}",10.0,12.0,10.0,5.0,SG,Red,coop,E.B.,pess_nat,coop,9.0,1.0,24527.800000000745,
,1368.0,html-keyboard-response,68,2.0.0,1130160,uagabu9yd9,692638df063c96e069476515,693256ebf0e6fff290db9982,38,feedbackTrial, ,,,,,,,,,,,,,,,,,"
                    <div style=""text-align:center;"">
                        <p style=""color:green; font-size:24px;"">Correct!</p><p>You now have 23 points.</p>
                        <p> Press any key to continue. </p>
                    </div>
                    "
,,html-keyboard-response,69,2.0.0,1155339,uagabu9yd9,692638df063c96e069476515,693256ebf0e6fff290db9982,38,socialPredictionGame,,,,"{""R"":10,""P"":5,""S"":10,""T"":5}",10.0,5.0,10.0,5.0,HG,Red,coop,E.B.,pess_nat,coop,9.0,1.0,25176.5,
,997.0,html-keyboard-response,70,2.0.0,1156337,uagabu9yd9,692638df063c96e069476515,693256ebf0e6fff290db9982,38,feedbackTrial, ,,,,,,,,,,,,,,,,,"
                    <div style=""text-align:center;"">
                        <p style=""color:green; font-size:24px;"">Correct!</p><p>You now have 24 points.</p>
                        <p> Press any key to continue. </p>
                    </div>
                    "
,,html-keyboard-response,71,2.0.0,1177429,uagabu9yd9,692638df063c96e069476515,693256ebf0e6fff290db9982,38,socialPredictionGame,,,,"{""R"":10,""P"":5,""S"":10,""T"":8}",10.0,8.0,10.0,5.0,HG,Red,coop,E.B.,pess_nat,coop,9.0,1.0,21089.5,
,1101.0,html-keyboard-response,72,2.0.0,1178531,uagabu9yd9,692638df063c96e069476515,693256ebf0e6fff290db9982,38,feedbackTrial, ,,,,,,,,,,,,,,,,,"
                    <div style=""text-align:center;"">
                        <p style=""color:green; font-size:24px;"">Correct!</p><p>You now have 25 points.</p>
                        <p> Press any key to continue. </p>
                    </div>
                    "
,,html-keyboard-response,73,2.0.0,1198526,uagabu9yd9,692638df063c96e069476515,693256ebf0e6fff290db9982,38,socialPredictionGame,,,,"{""R"":10,""P"":5,""S"":0,""T"":8}",0.0,8.0,10.0,5.0,SH,Blue,def,E.B.,pess_nat,def,9.0,1.0,19992.0,
,870.0,html-keyboard-response,74,2.0.0,1199397,uagabu9yd9,692638df063c96e069476515,693256ebf0e6fff290db9982,38,feedbackTrial, ,,,,,,,,,,,,,,,,,"
                    <div style=""text-align:center;"">
                        <p style=""color:green; font-size:24px;"">Correct!</p><p>You now have 26 points.</p>
                        <p> Press any key to continue. </p>
                    </div>
                    "
,,html-keyboard-response,75,2.0.0,1219927,uagabu9yd9,692638df063c96e069476515,693256ebf0e6fff290db9982,38,socialPredictionGame,,,,"{""R"":10,""P"":5,""S"":0,""T"":12}",0.0,12.0,10.0,5.0,PD,Blue,def,E.B.,pess_nat,def,9.0,1.0,20527.599999997765,
,1048.0,html-keyboard-response,76,2.0.0,1220977,uagabu9yd9,692638df063c96e069476515,693256ebf0e6fff290db9982,38,feedbackTrial, ,,,,,,,,,,,,,,,,,"
                    <div style=""text-align:center;"">
                        <p style=""color:green; font-size:24px;"">Correct!</p><p>You now have 27 points.</p>
                        <p> Press any key to continue. </p>
                    </div>
                    "
,68376.0,survey-html-form,77,2.1.0,1289356,uagabu9yd9,692638df063c96e069476515,693256ebf0e6fff290db9982,38,strategyPrediction,"{""strategyPrediction"":""maximize profits and avoid low worst case outcomes""}",,,,,,,,,,,,,,,,,
"[{""page_index"":0,""viewing_time"":5434}]",5434.0,instructions,78,2.1.0,1294791,uagabu9yd9,692638df063c96e069476515,693256ebf0e6fff290db9982,38,,,,,,,,,,,,,,,,,,,
,,html-keyboard-response,79,2.0.0,1310668,uagabu9yd9,692638df063c96e069476515,693256ebf0e6fff290db9982,38,socialPredictionGame,,,,"{""R"":10,""P"":5,""S"":10,""T"":5}",10.0,5.0,10.0,5.0,HG,Red,coop,F.A.,pess_inv,def,9.0,0.0,15874.5,
,2653.0,html-keyboard-response,80,2.0.0,1313323,uagabu9yd9,692638df063c96e069476515,693256ebf0e6fff290db9982,38,feedbackTrial, ,,,,,,,,,,,,,,,,,"
                    <div style=""text-align:center;"">
                        <p style=""color:red; font-size:24px;"">Incorrect</p><p>You still have 27 points.</p>
                        <p> Press any key to continue. </p>
                    </div>
                    "
,,html-keyboard-response,81,2.0.0,1337431,uagabu9yd9,692638df063c96e069476515,693256ebf0e6fff290db9982,38,socialPredictionGame,,,,"{""R"":10,""P"":5,""S"":7,""T"":5}",7.0,5.0,10.0,5.0,HG,Red,coop,F.A.,pess_inv,def,9.0,0.0,24105.800000000745,
,3020.0,html-keyboard-response,82,2.0.0,1340452,uagabu9yd9,692638df063c96e069476515,693256ebf0e6fff290db9982,38,feedbackTrial, ,,,,,,,,,,,,,,,,,"
                    <div style=""text-align:center;"">
                        <p style=""color:red; font-size:24px;"">Incorrect</p><p>You still have 27 points.</p>
                        <p> Press any key to continue. </p>
                    </div>
                    "
,,html-keyboard-response,83,2.0.0,1365344,uagabu9yd9,692638df063c96e069476515,693256ebf0e6fff290db9982,38,socialPredictionGame,,,,"{""R"":10,""P"":5,""S"":10,""T"":12}",10.0,12.0,10.0,5.0,SG,Red,coop,F.A.,pess_inv,def,9.0,0.0,24889.699999999255,
,5628.0,html-keyboard-response,84,2.0.0,1370974,uagabu9yd9,692638df063c96e069476515,693256ebf0e6fff290db9982,38,feedbackTrial, ,,,,,,,,,,,,,,,,,"
                    <div style=""text-align:center;"">
                        <p style=""color:red; font-size:24px;"">Incorrect</p><p>You still have 27 points.</p>
                        <p> Press any key to continue. </p>
                    </div>
                    "
,,html-keyboard-response,85,2.0.0,1400181,uagabu9yd9,692638df063c96e069476515,693256ebf0e6fff290db9982,38,socialPredictionGame,,,,"{""R"":10,""P"":5,""S"":3,""T"":8}",3.0,8.0,10.0,5.0,SH,Purple,def,F.A.,pess_inv,coop,9.0,0.0,29205.800000000745,
,2323.0,html-keyboard-response,86,2.0.0,1402506,uagabu9yd9,692638df063c96e069476515,693256ebf0e6fff290db9982,38,feedbackTrial, ,,,,,,,,,,,,,,,,,"
                    <div style=""text-align:center;"">
                        <p style=""color:red; font-size:24px;"">Incorrect</p><p>You still have 27 points.</p>
                        <p> Press any key to continue. </p>
                    </div>
                    "
,,html-keyboard-response,87,2.0.0,1428024,uagabu9yd9,692638df063c96e069476515,693256ebf0e6fff290db9982,38,socialPredictionGame,,,,"{""R"":10,""P"":5,""S"":10,""T"":8}",10.0,8.0,10.0,5.0,HG,Purple,def,F.A.,pess_inv,def,9.0,1.0,25515.599999997765,
,2339.0,html-keyboard-response,88,2.0.0,1430364,uagabu9yd9,692638df063c96e069476515,693256ebf0e6fff290db9982,38,feedbackTrial, ,,,,,,,,,,,,,,,,,"
                    <div style=""text-align:center;"">
                        <p style=""color:green; font-size:24px;"">Correct!</p><p>You now have 28 points.</p>
                        <p> Press any key to continue. </p>
                    </div>
                    "
,,html-keyboard-response,89,2.0.0,1446334,uagabu9yd9,692638df063c96e069476515,693256ebf0e6fff290db9982,38,socialPredictionGame,,,,"{""R"":10,""P"":5,""S"":10,""T"":15}",10.0,15.0,10.0,5.0,SG,Red,coop,F.A.,pess_inv,def,9.0,0.0,15967.699999999257,
,3358.0,html-keyboard-response,90,2.0.0,1449693,uagabu9yd9,692638df063c96e069476515,693256ebf0e6fff290db9982,38,feedbackTrial, ,,,,,,,,,,,,,,,,,"
                    <div style=""text-align:center;"">
                        <p style=""color:red; font-size:24px;"">Incorrect</p><p>You still have 28 points.</p>
                        <p> Press any key to continue. </p>
                    </div>
                    "
,,html-keyboard-response,91,2.0.0,1472242,uagabu9yd9,692638df063c96e069476515,693256ebf0e6fff290db9982,38,socialPredictionGame,,,,"{""R"":10,""P"":5,""S"":3,""T"":15}",3.0,15.0,10.0,5.0,PD,Purple,def,F.A.,pess_inv,coop,9.0,0.0,22546.300000000745,
,4499.0,html-keyboard-response,92,2.0.0,1476744,uagabu9yd9,692638df063c96e069476515,693256ebf0e6fff290db9982,38,feedbackTrial, ,,,,,,,,,,,,,,,,,"
                    <div style=""text-align:center;"">
                        <p style=""color:red; font-size:24px;"">Incorrect</p><p>You still have 28 points.</p>
                        <p> Press any key to continue. </p>
                    </div>
                    "
,,html-keyboard-response,93,2.0.0,1504368,uagabu9yd9,692638df063c96e069476515,693256ebf0e6fff290db9982,38,socialPredictionGame,,,,"{""R"":10,""P"":5,""S"":0,""T"":5}",0.0,5.0,10.0,5.0,SH,Purple,def,F.A.,pess_inv,coop,9.0,0.0,27622.800000000745,
,1563.0,html-keyboard-response,94,2.0.0,1505934,uagabu9yd9,692638df063c96e069476515,693256ebf0e6fff290db9982,38,feedbackTrial, ,,,,,,,,,,,,,,,,,"
                    <div style=""text-align:center;"">
                        <p style=""color:red; font-size:24px;"">Incorrect</p><p>You still have 28 points.</p>
                        <p> Press any key to continue. </p>
                    </div>
                    "
,,html-keyboard-response,95,2.0.0,1512587,uagabu9yd9,692638df063c96e069476515,693256ebf0e6fff290db9982,38,socialPredictionGame,,,,"{""R"":10,""P"":5,""S"":7,""T"":15}",7.0,15.0,10.0,5.0,SG,Red,coop,F.A.,pess_inv,def,8.0,0.0,6651.199999999255,
,2941.0,html-keyboard-response,96,2.0.0,1515529,uagabu9yd9,692638df063c96e069476515,693256ebf0e6fff290db9982,38,feedbackTrial, ,,,,,,,,,,,,,,,,,"
                    <div style=""text-align:center;"">
                        <p style=""color:red; font-size:24px;"">Incorrect</p><p>You still have 28 points.</p>
                        <p> Press any key to continue. </p>
                    </div>
                    "
,,html-keyboard-response,97,2.0.0,1522994,uagabu9yd9,692638df063c96e069476515,693256ebf0e6fff290db9982,38,socialPredictionGame,,,,"{""R"":10,""P"":5,""S"":0,""T"":15}",0.0,15.0,10.0,5.0,PD,Red,coop,F.A.,pess_inv,coop,8.0,1.0,7462.400000002235,
,3826.0,html-keyboard-response,98,2.0.0,1526822,uagabu9yd9,692638df063c96e069476515,693256ebf0e6fff290db9982,38,feedbackTrial, ,,,,,,,,,,,,,,,,,"
                    <div style=""text-align:center;"">
                        <p style=""color:green; font-size:24px;"">Correct!</p><p>You now have 29 points.</p>
                        <p> Press any key to continue. </p>
                    </div>
                    "
,,html-keyboard-response,99,2.0.0,1531916,uagabu9yd9,692638df063c96e069476515,693256ebf0e6fff290db9982,38,socialPredictionGame,,,,"{""R"":10,""P"":5,""S"":0,""T"":12}",0.0,12.0,10.0,5.0,PD,Red,coop,F.A.,pess_inv,coop,8.0,1.0,5091.60000000149,
,3409.0,html-keyboard-response,100,2.0.0,1535327,uagabu9yd9,692638df063c96e069476515,693256ebf0e6fff290db9982,38,feedbackTrial, ,,,,,,,,,,,,,,,,,"
                    <div style=""text-align:center;"">
                        <p style=""color:green; font-size:24px;"">Correct!</p><p>You now have 30 points.</p>
                        <p> Press any key to continue. </p>
                    </div>
                    "
,,html-keyboard-response,101,2.0.0,1542430,uagabu9yd9,692638df063c96e069476515,693256ebf0e6fff290db9982,38,socialPredictionGame,,,,"{""R"":10,""P"":5,""S"":0,""T"":8}",0.0,8.0,10.0,5.0,SH,Red,coop,F.A.,pess_inv,coop,8.0,1.0,7101.199999999255,
,4076.0,html-keyboard-response,102,2.0.0,1546508,uagabu9yd9,692638df063c96e069476515,693256ebf0e6fff290db9982,38,feedbackTrial, ,,,,,,,,,,,,,,,,,"
                    <div style=""text-align:center;"">
                        <p style=""color:green; font-size:24px;"">Correct!</p><p>You now have 31 points.</p>
                        <p> Press any key to continue. </p>
                    </div>
                    "
,,html-keyboard-response,103,2.0.0,1551650,uagabu9yd9,692638df063c96e069476515,693256ebf0e6fff290db9982,38,socialPredictionGame,,,,"{""R"":10,""P"":5,""S"":3,""T"":12}",3.0,12.0,10.0,5.0,PD,Purple,def,F.A.,pess_inv,coop,8.0,0.0,5139.300000000745,
,2698.0,html-keyboard-response,104,2.0.0,1554350,uagabu9yd9,692638df063c96e069476515,693256ebf0e6fff290db9982,38,feedbackTrial, ,,,,,,,,,,,,,,,,,"
                    <div style=""text-align:center;"">
                        <p style=""color:red; font-size:24px;"">Incorrect</p><p>You still have 31 points.</p>
                        <p> Press any key to continue. </p>
                    </div>
                    "
,,html-keyboard-response,105,2.0.0,1560948,uagabu9yd9,692638df063c96e069476515,693256ebf0e6fff290db9982,38,socialPredictionGame,,,,"{""R"":10,""P"":5,""S"":7,""T"":8}",7.0,8.0,10.0,5.0,HG,Purple,def,F.A.,pess_inv,def,8.0,1.0,6596.10000000149,
,6357.0,html-keyboard-response,106,2.0.0,1567307,uagabu9yd9,692638df063c96e069476515,693256ebf0e6fff290db9982,38,feedbackTrial, ,,,,,,,,,,,,,,,,,"
                    <div style=""text-align:center;"">
                        <p style=""color:green; font-size:24px;"">Correct!</p><p>You now have 32 points.</p>
                        <p> Press any key to continue. </p>
                    </div>
                    "
,,html-keyboard-response,107,2.0.0,1575243,uagabu9yd9,692638df063c96e069476515,693256ebf0e6fff290db9982,38,socialPredictionGame,,,,"{""R"":10,""P"":5,""S"":3,""T"":5}",3.0,5.0,10.0,5.0,SH,Red,coop,F.A.,pess_inv,coop,8.0,1.0,7934.5,
,3949.0,html-keyboard-response,108,2.0.0,1579194,uagabu9yd9,692638df063c96e069476515,693256ebf0e6fff290db9982,38,feedbackTrial, ,,,,,,,,,,,,,,,,,"
                    <div style=""text-align:center;"">
                        <p style=""color:green; font-size:24px;"">Correct!</p><p>You now have 33 points.</p>
                        <p> Press any key to continue. </p>
                    </div>
                    "
,,html-keyboard-response,109,2.0.0,1588072,uagabu9yd9,692638df063c96e069476515,693256ebf0e6fff290db9982,38,socialPredictionGame,,,,"{""R"":10,""P"":5,""S"":7,""T"":12}",7.0,12.0,10.0,5.0,SG,Red,coop,F.A.,pess_inv,def,8.0,0.0,8877.79999999702,
,2964.0,html-keyboard-response,110,2.0.0,1591038,uagabu9yd9,692638df063c96e069476515,693256ebf0e6fff290db9982,38,feedbackTrial, ,,,,,,,,,,,,,,,,,"
                    <div style=""text-align:center;"">
                        <p style=""color:red; font-size:24px;"">Incorrect</p><p>You still have 33 points.</p>
                        <p> Press any key to continue. </p>
                    </div>
                    "
,7851.0,survey-html-form,111,2.1.0,1598892,uagabu9yd9,692638df063c96e069476515,693256ebf0e6fff290db9982,38,strategyPrediction,"{""strategyPrediction"":""not sure""}",,,,,,,,,,,,,,,,,
"[{""page_index"":0,""viewing_time"":2803}]",2803.0,instructions,112,2.1.0,1601697,uagabu9yd9,692638df063c96e069476515,693256ebf0e6fff290db9982,38,,,,,,,,,,,,,,,,,,,
,,html-keyboard-response,113,2.0.0,1678369,uagabu9yd9,692638df063c96e069476515,693256ebf0e6fff290db9982,38,socialPredictionGame,,,,"{""R"":10,""P"":5,""S"":3,""T"":15}",3.0,15.0,10.0,5.0,PD,Blue,coop,G.P.,opt_inv,coop,9.0,1.0,76670.80000000075,
,3508.0,html-keyboard-response,114,2.0.0,1681879,uagabu9yd9,692638df063c96e069476515,693256ebf0e6fff290db9982,38,feedbackTrial, ,,,,,,,,,,,,,,,,,"
                    <div style=""text-align:center;"">
                        <p style=""color:green; font-size:24px;"">Correct!</p><p>You now have 34 points.</p>
                        <p> Press any key to continue. </p>
                    </div>
                    "
,,html-keyboard-response,115,2.0.0,1689352,uagabu9yd9,692638df063c96e069476515,693256ebf0e6fff290db9982,38,socialPredictionGame,,,,"{""R"":10,""P"":5,""S"":0,""T"":8}",0.0,8.0,10.0,5.0,SH,Blue,coop,G.P.,opt_inv,def,9.0,0.0,7470.10000000149,
,4962.0,html-keyboard-response,116,2.0.0,1694316,uagabu9yd9,692638df063c96e069476515,693256ebf0e6fff290db9982,38,feedbackTrial, ,,,,,,,,,,,,,,,,,"
                    <div style=""text-align:center;"">
                        <p style=""color:red; font-size:24px;"">Incorrect</p><p>You still have 34 points.</p>
                        <p> Press any key to continue. </p>
                    </div>
                    "
,,html-keyboard-response,117,2.0.0,1706728,uagabu9yd9,692638df063c96e069476515,693256ebf0e6fff290db9982,38,socialPredictionGame,,,,"{""R"":10,""P"":5,""S"":10,""T"":5}",10.0,5.0,10.0,5.0,HG,Blue,coop,G.P.,opt_inv,def,9.0,0.0,12410.0,
,4128.0,html-keyboard-response,118,2.0.0,1710857,uagabu9yd9,692638df063c96e069476515,693256ebf0e6fff290db9982,38,feedbackTrial, ,,,,,,,,,,,,,,,,,"
                    <div style=""text-align:center;"">
                        <p style=""color:red; font-size:24px;"">Incorrect</p><p>You still have 34 points.</p>
                        <p> Press any key to continue. </p>
                    </div>
                    "
,,html-keyboard-response,119,2.0.0,1723714,uagabu9yd9,692638df063c96e069476515,693256ebf0e6fff290db9982,38,socialPredictionGame,,,,"{""R"":10,""P"":5,""S"":3,""T"":12}",3.0,12.0,10.0,5.0,PD,Green,def,G.P.,opt_inv,coop,8.0,0.0,12854.599999997765,
,1186.0,html-keyboard-response,120,2.0.0,1724903,uagabu9yd9,692638df063c96e069476515,693256ebf0e6fff290db9982,38,feedbackTrial, ,,,,,,,,,,,,,,,,,"
                    <div style=""text-align:center;"">
                        <p style=""color:red; font-size:24px;"">Incorrect</p><p>You still have 34 points.</p>
                        <p> Press any key to continue. </p>
                    </div>
                    "
,,html-keyboard-response,121,2.0.0,1732289,uagabu9yd9,692638df063c96e069476515,693256ebf0e6fff290db9982,38,socialPredictionGame,,,,"{""R"":10,""P"":5,""S"":3,""T"":5}",3.0,5.0,10.0,5.0,SH,Blue,coop,G.P.,opt_inv,def,7.0,0.0,7384.20000000298,
,1101.0,html-keyboard-response,122,2.0.0,1733392,uagabu9yd9,692638df063c96e069476515,693256ebf0e6fff290db9982,38,feedbackTrial, ,,,,,,,,,,,,,,,,,"
                    <div style=""text-align:center;"">
                        <p style=""color:red; font-size:24px;"">Incorrect</p><p>You still have 34 points.</p>
                        <p> Press any key to continue. </p>
                    </div>
                    "
,,html-keyboard-response,123,2.0.0,1781306,uagabu9yd9,692638df063c96e069476515,693256ebf0e6fff290db9982,38,socialPredictionGame,,,,"{""R"":10,""P"":5,""S"":3,""T"":8}",3.0,8.0,10.0,5.0,SH,Blue,coop,G.P.,opt_inv,def,8.0,0.0,47911.300000000745,
,1512.0,html-keyboard-response,124,2.0.0,1782820,uagabu9yd9,692638df063c96e069476515,693256ebf0e6fff290db9982,38,feedbackTrial, ,,,,,,,,,,,,,,,,,"
                    <div style=""text-align:center;"">
                        <p style=""color:red; font-size:24px;"">Incorrect</p><p>You still have 34 points.</p>
                        <p> Press any key to continue. </p>
                    </div>
                    "
,,html-keyboard-response,125,2.0.0,1811791,uagabu9yd9,692638df063c96e069476515,693256ebf0e6fff290db9982,38,socialPredictionGame,,,,"{""R"":10,""P"":5,""S"":10,""T"":8}",10.0,8.0,10.0,5.0,HG,Blue,coop,G.P.,opt_inv,def,8.0,0.0,28968.79999999702,
,3189.0,html-keyboard-response,126,2.0.0,1814982,uagabu9yd9,692638df063c96e069476515,693256ebf0e6fff290db9982,38,feedbackTrial, ,,,,,,,,,,,,,,,,,"
                    <div style=""text-align:center;"">
                        <p style=""color:red; font-size:24px;"">Incorrect</p><p>You still have 34 points.</p>
                        <p> Press any key to continue. </p>
                    </div>
                    "
,,html-keyboard-response,127,2.0.0,1864712,uagabu9yd9,692638df063c96e069476515,693256ebf0e6fff290db9982,38,socialPredictionGame,,,,"{""R"":10,""P"":5,""S"":7,""T"":5}",7.0,5.0,10.0,5.0,HG,Blue,coop,G.P.,opt_inv,def,8.0,0.0,49727.5,
,12272.0,html-keyboard-response,128,2.0.0,1876986,uagabu9yd9,692638df063c96e069476515,693256ebf0e6fff290db9982,38,feedbackTrial, ,,,,,,,,,,,,,,,,,"
                    <div style=""text-align:center;"">
                        <p style=""color:red; font-size:24px;"">Incorrect</p><p>You still have 34 points.</p>
                        <p> Press any key to continue. </p>
                    </div>
                    "
,,html-keyboard-response,129,2.0.0,1931075,uagabu9yd9,692638df063c96e069476515,693256ebf0e6fff290db9982,38,socialPredictionGame,,,,"{""R"":10,""P"":5,""S"":10,""T"":12}",10.0,12.0,10.0,5.0,SG,Blue,coop,G.P.,opt_inv,coop,9.0,1.0,54085.60000000149,
,2130.0,html-keyboard-response,130,2.0.0,1933207,uagabu9yd9,692638df063c96e069476515,693256ebf0e6fff290db9982,38,feedbackTrial, ,,,,,,,,,,,,,,,,,"
                    <div style=""text-align:center;"">
                        <p style=""color:green; font-size:24px;"">Correct!</p><p>You now have 35 points.</p>
                        <p> Press any key to continue. </p>
                    </div>
                    "
,,html-keyboard-response,131,2.0.0,1964683,uagabu9yd9,692638df063c96e069476515,693256ebf0e6fff290db9982,38,socialPredictionGame,,,,"{""R"":10,""P"":5,""S"":0,""T"":15}",0.0,15.0,10.0,5.0,PD,Green,def,G.P.,opt_inv,coop,8.0,0.0,31473.79999999702,
,8547.0,html-keyboard-response,132,2.0.0,1973232,uagabu9yd9,692638df063c96e069476515,693256ebf0e6fff290db9982,38,feedbackTrial, ,,,,,,,,,,,,,,,,,"
                    <div style=""text-align:center;"">
                        <p style=""color:red; font-size:24px;"">Incorrect</p><p>You still have 35 points.</p>
                        <p> Press any key to continue. </p>
                    </div>
                    "
,,html-keyboard-response,133,2.0.0,2018177,uagabu9yd9,692638df063c96e069476515,693256ebf0e6fff290db9982,38,socialPredictionGame,,,,"{""R"":10,""P"":5,""S"":7,""T"":12}",7.0,12.0,10.0,5.0,SG,Blue,coop,G.P.,opt_inv,coop,8.0,1.0,44942.699999999255,
,1550.0,html-keyboard-response,134,2.0.0,2019728,uagabu9yd9,692638df063c96e069476515,693256ebf0e6fff290db9982,38,feedbackTrial, ,,,,,,,,,,,,,,,,,"
                    <div style=""text-align:center;"">
                        <p style=""color:green; font-size:24px;"">Correct!</p><p>You now have 36 points.</p>
                        <p> Press any key to continue. </p>
                    </div>
                    "
,,html-keyboard-response,135,2.0.0,2056477,uagabu9yd9,692638df063c96e069476515,693256ebf0e6fff290db9982,38,socialPredictionGame,,,,"{""R"":10,""P"":5,""S"":0,""T"":5}",0.0,5.0,10.0,5.0,SH,Blue,coop,G.P.,opt_inv,def,9.0,0.0,36746.60000000149,
,2867.0,html-keyboard-response,136,2.0.0,2059347,uagabu9yd9,692638df063c96e069476515,693256ebf0e6fff290db9982,38,feedbackTrial, ,,,,,,,,,,,,,,,,,"
                    <div style=""text-align:center;"">
                        <p style=""color:red; font-size:24px;"">Incorrect</p><p>You still have 36 points.</p>
                        <p> Press any key to continue. </p>
                    </div>
                    "
,,html-keyboard-response,137,2.0.0,2105368,uagabu9yd9,692638df063c96e069476515,693256ebf0e6fff290db9982,38,socialPredictionGame,,,,"{""R"":10,""P"":5,""S"":7,""T"":8}",7.0,8.0,10.0,5.0,HG,Blue,coop,G.P.,opt_inv,def,8.0,0.0,46019.0,
,1475.0,html-keyboard-response,138,2.0.0,2106845,uagabu9yd9,692638df063c96e069476515,693256ebf0e6fff290db9982,38,feedbackTrial, ,,,,,,,,,,,,,,,,,"
                    <div style=""text-align:center;"">
                        <p style=""color:red; font-size:24px;"">Incorrect</p><p>You still have 36 points.</p>
                        <p> Press any key to continue. </p>
                    </div>
                    "
,,html-keyboard-response,139,2.0.0,2132696,uagabu9yd9,692638df063c96e069476515,693256ebf0e6fff290db9982,38,socialPredictionGame,,,,"{""R"":10,""P"":5,""S"":10,""T"":15}",10.0,15.0,10.0,5.0,SG,Green,def,G.P.,opt_inv,coop,5.0,0.0,25848.89999999851,
,1398.0,html-keyboard-response,140,2.0.0,2134096,uagabu9yd9,692638df063c96e069476515,693256ebf0e6fff290db9982,38,feedbackTrial, ,,,,,,,,,,,,,,,,,"
                    <div style=""text-align:center;"">
                        <p style=""color:red; font-size:24px;"">Incorrect</p><p>You still have 36 points.</p>
                        <p> Press any key to continue. </p>
                    </div>
                    "
,,html-keyboard-response,141,2.0.0,2151746,uagabu9yd9,692638df063c96e069476515,693256ebf0e6fff290db9982,38,socialPredictionGame,,,,"{""R"":10,""P"":5,""S"":0,""T"":12}",0.0,12.0,10.0,5.0,PD,Blue,coop,G.P.,opt_inv,coop,5.0,1.0,17649.10000000149,
,2180.0,html-keyboard-response,142,2.0.0,2153927,uagabu9yd9,692638df063c96e069476515,693256ebf0e6fff290db9982,38,feedbackTrial, ,,,,,,,,,,,,,,,,,"
                    <div style=""text-align:center;"">
                        <p style=""color:green; font-size:24px;"">Correct!</p><p>You now have 37 points.</p>
                        <p> Press any key to continue. </p>
                    </div>
                    "
,,html-keyboard-response,143,2.0.0,2192945,uagabu9yd9,692638df063c96e069476515,693256ebf0e6fff290db9982,38,socialPredictionGame,,,,"{""R"":10,""P"":5,""S"":7,""T"":15}",7.0,15.0,10.0,5.0,SG,Blue,coop,G.P.,opt_inv,coop,5.0,1.0,39015.099999997765,
,2862.0,html-keyboard-response,144,2.0.0,2195808,uagabu9yd9,692638df063c96e069476515,693256ebf0e6fff290db9982,38,feedbackTrial, ,,,,,,,,,,,,,,,,,"
                    <div style=""text-align:center;"">
                        <p style=""color:green; font-size:24px;"">Correct!</p><p>You now have 38 points.</p>
                        <p> Press any key to continue. </p>
                    </div>
                    "
,78668.0,survey-html-form,145,2.1.0,2274479,uagabu9yd9,692638df063c96e069476515,693256ebf0e6fff290db9982,38,strategyPrediction,"{""strategyPrediction"":""not very sure""}",,,,,,,,,,,,,,,,,
,10932.0,survey-html-form,146,2.1.0,2285414,uagabu9yd9,692638df063c96e069476515,693256ebf0e6fff290db9982,38,demographics,"{""age"":""25"",""gender"":""Male""}",,,,,,,,,,,,,,,,,
,35737.0,survey-html-form,147,2.1.0,2321152,uagabu9yd9,692638df063c96e069476515,693256ebf0e6fff290db9982,38,technical,"{""technical"":""I didn't have any issues"",""feedback"":""""}",,,,,,,,,,,,,,,,,
