view_history,rt,trial_type,trial_index,plugin_version,time_elapsed,subjectID,studyID,sessionID,overallBonusPoints,task,response,question_order,success,Matrix,S,T,R,P,GameType,choice,GivenAns,Player,PlayerType,CorrAns,confidence,ScoreNum,time_on_trial,stimulus
"[{""page_index"":0,""viewing_time"":6649},{""page_index"":1,""viewing_time"":16963}]",23611.0,instructions,0,2.1.0,23617,uebg0409r3,692638df063c96e069476515,69323fba3bc587f4386c8241,30,,,,,,,,,,,,,,,,,,,
"[{""page_index"":0,""viewing_time"":99366}]",99366.0,instructions,1,2.1.0,122985,uebg0409r3,692638df063c96e069476515,69323fba3bc587f4386c8241,30,,,,,,,,,,,,,,,,,,,
"[{""page_index"":0,""viewing_time"":5935}]",5935.0,instructions,2,2.1.0,128920,uebg0409r3,692638df063c96e069476515,69323fba3bc587f4386c8241,30,,,,,,,,,,,,,,,,,,,
,37504.0,survey-multi-choice,3,,166426,uebg0409r3,692638df063c96e069476515,69323fba3bc587f4386c8241,30,comprehensionCheck,"{""task"":""Choose the option the anonymized participant chose"",""incentive"":""Yes—they received bonuses based on their performance""}","[0,1]",,,,,,,,,,,,,,,,
,4727.0,fullscreen,4,2.1.0,172170,uebg0409r3,692638df063c96e069476515,69323fba3bc587f4386c8241,30,,,,True,,,,,,,,,,,,,,,
"[{""page_index"":0,""viewing_time"":14704}]",14704.0,instructions,5,2.1.0,186875,uebg0409r3,692638df063c96e069476515,69323fba3bc587f4386c8241,30,,,,,,,,,,,,,,,,,,,
,,html-keyboard-response,6,2.0.0,210291,uebg0409r3,692638df063c96e069476515,69323fba3bc587f4386c8241,30,playOwnGame,,,,"{""R"":10,""P"":5,""S"":7,""T"":15}",7.0,15.0,10.0,5.0,SG,Purple,coop,,,,,,,
,,html-keyboard-response,7,2.0.0,223523,uebg0409r3,692638df063c96e069476515,69323fba3bc587f4386c8241,30,playOwnGame,,,,"{""R"":10,""P"":5,""S"":0,""T"":8}",0.0,8.0,10.0,5.0,SH,Green,def,,,,,,,
,,html-keyboard-response,8,2.0.0,232141,uebg0409r3,692638df063c96e069476515,69323fba3bc587f4386c8241,30,playOwnGame,,,,"{""R"":10,""P"":5,""S"":10,""T"":5}",10.0,5.0,10.0,5.0,HG,Purple,coop,,,,,,,
,,html-keyboard-response,9,2.0.0,246339,uebg0409r3,692638df063c96e069476515,69323fba3bc587f4386c8241,30,playOwnGame,,,,"{""R"":10,""P"":5,""S"":0,""T"":15}",0.0,15.0,10.0,5.0,PD,Purple,coop,,,,,,,
"[{""page_index"":0,""viewing_time"":4620}]",4620.0,instructions,10,2.1.0,250960,uebg0409r3,692638df063c96e069476515,69323fba3bc587f4386c8241,30,,,,,,,,,,,,,,,,,,,
,,html-keyboard-response,11,2.0.0,279594,uebg0409r3,692638df063c96e069476515,69323fba3bc587f4386c8241,30,socialPredictionGame,,,,"{""R"":10,""P"":5,""S"":10,""T"":5}",10.0,5.0,10.0,5.0,HG,Purple,coop,F.A.,opt_nat,coop,8.0,1.0,28632.89999985695,
,3689.0,html-keyboard-response,12,2.0.0,283284,uebg0409r3,692638df063c96e069476515,69323fba3bc587f4386c8241,30,feedbackTrial,Alt,,,,,,,,,,,,,,,,,"
                    <div style=""text-align:center;"">
                        <p style=""color:green; font-size:24px;"">Correct!</p><p>You now have 1 points.</p>
                        <p> Press any key to continue. </p>
                    </div>
                    "
,,html-keyboard-response,13,2.0.0,294978,uebg0409r3,692638df063c96e069476515,69323fba3bc587f4386c8241,30,socialPredictionGame,,,,"{""R"":10,""P"":5,""S"":3,""T"":12}",3.0,12.0,10.0,5.0,PD,Purple,coop,F.A.,opt_nat,def,9.0,0.0,11693.5,
,6898.0,html-keyboard-response,14,2.0.0,301877,uebg0409r3,692638df063c96e069476515,69323fba3bc587f4386c8241,30,feedbackTrial,k,,,,,,,,,,,,,,,,,"
                    <div style=""text-align:center;"">
                        <p style=""color:red; font-size:24px;"">Incorrect</p><p>You still have 1 points.</p>
                        <p> Press any key to continue. </p>
                    </div>
                    "
,,html-keyboard-response,15,2.0.0,311144,uebg0409r3,692638df063c96e069476515,69323fba3bc587f4386c8241,30,socialPredictionGame,,,,"{""R"":10,""P"":5,""S"":7,""T"":12}",7.0,12.0,10.0,5.0,SG,Green,def,F.A.,opt_nat,def,7.0,1.0,9266.400000095367,
,3147.0,html-keyboard-response,16,2.0.0,314292,uebg0409r3,692638df063c96e069476515,69323fba3bc587f4386c8241,30,feedbackTrial,m,,,,,,,,,,,,,,,,,"
                    <div style=""text-align:center;"">
                        <p style=""color:green; font-size:24px;"">Correct!</p><p>You now have 2 points.</p>
                        <p> Press any key to continue. </p>
                    </div>
                    "
,,html-keyboard-response,17,2.0.0,320567,uebg0409r3,692638df063c96e069476515,69323fba3bc587f4386c8241,30,socialPredictionGame,,,,"{""R"":10,""P"":5,""S"":0,""T"":12}",0.0,12.0,10.0,5.0,PD,Green,def,F.A.,opt_nat,def,8.0,1.0,6274.400000095367,
,2282.0,html-keyboard-response,18,2.0.0,322850,uebg0409r3,692638df063c96e069476515,69323fba3bc587f4386c8241,30,feedbackTrial,m,,,,,,,,,,,,,,,,,"
                    <div style=""text-align:center;"">
                        <p style=""color:green; font-size:24px;"">Correct!</p><p>You now have 3 points.</p>
                        <p> Press any key to continue. </p>
                    </div>
                    "
,,html-keyboard-response,19,2.0.0,327348,uebg0409r3,692638df063c96e069476515,69323fba3bc587f4386c8241,30,socialPredictionGame,,,,"{""R"":10,""P"":5,""S"":0,""T"":15}",0.0,15.0,10.0,5.0,PD,Green,def,F.A.,opt_nat,def,8.0,1.0,4497.299999952316,
,3722.0,html-keyboard-response,20,2.0.0,331071,uebg0409r3,692638df063c96e069476515,69323fba3bc587f4386c8241,30,feedbackTrial,k,,,,,,,,,,,,,,,,,"
                    <div style=""text-align:center;"">
                        <p style=""color:green; font-size:24px;"">Correct!</p><p>You now have 4 points.</p>
                        <p> Press any key to continue. </p>
                    </div>
                    "
,,html-keyboard-response,21,2.0.0,338444,uebg0409r3,692638df063c96e069476515,69323fba3bc587f4386c8241,30,socialPredictionGame,,,,"{""R"":10,""P"":5,""S"":3,""T"":8}",3.0,8.0,10.0,5.0,SH,Purple,coop,F.A.,opt_nat,coop,8.0,1.0,7372.400000095367,
,2160.0,html-keyboard-response,22,2.0.0,340605,uebg0409r3,692638df063c96e069476515,69323fba3bc587f4386c8241,30,feedbackTrial,j,,,,,,,,,,,,,,,,,"
                    <div style=""text-align:center;"">
                        <p style=""color:green; font-size:24px;"">Correct!</p><p>You now have 5 points.</p>
                        <p> Press any key to continue. </p>
                    </div>
                    "
,,html-keyboard-response,23,2.0.0,348402,uebg0409r3,692638df063c96e069476515,69323fba3bc587f4386c8241,30,socialPredictionGame,,,,"{""R"":10,""P"":5,""S"":10,""T"":8}",10.0,8.0,10.0,5.0,HG,Green,def,F.A.,opt_nat,coop,4.0,0.0,7795.899999856949,
,2716.0,html-keyboard-response,24,2.0.0,351118,uebg0409r3,692638df063c96e069476515,69323fba3bc587f4386c8241,30,feedbackTrial,9,,,,,,,,,,,,,,,,,"
                    <div style=""text-align:center;"">
                        <p style=""color:red; font-size:24px;"">Incorrect</p><p>You still have 5 points.</p>
                        <p> Press any key to continue. </p>
                    </div>
                    "
,,html-keyboard-response,25,2.0.0,356100,uebg0409r3,692638df063c96e069476515,69323fba3bc587f4386c8241,30,socialPredictionGame,,,,"{""R"":10,""P"":5,""S"":7,""T"":5}",7.0,5.0,10.0,5.0,HG,Purple,coop,F.A.,opt_nat,coop,8.0,1.0,4981.799999952316,
,2554.0,html-keyboard-response,26,2.0.0,358655,uebg0409r3,692638df063c96e069476515,69323fba3bc587f4386c8241,30,feedbackTrial,u,,,,,,,,,,,,,,,,,"
                    <div style=""text-align:center;"">
                        <p style=""color:green; font-size:24px;"">Correct!</p><p>You now have 6 points.</p>
                        <p> Press any key to continue. </p>
                    </div>
                    "
,,html-keyboard-response,27,2.0.0,364151,uebg0409r3,692638df063c96e069476515,69323fba3bc587f4386c8241,30,socialPredictionGame,,,,"{""R"":10,""P"":5,""S"":3,""T"":15}",3.0,15.0,10.0,5.0,PD,Green,def,F.A.,opt_nat,def,8.0,1.0,5495.0,
,1454.0,html-keyboard-response,28,2.0.0,365606,uebg0409r3,692638df063c96e069476515,69323fba3bc587f4386c8241,30,feedbackTrial,8,,,,,,,,,,,,,,,,,"
                    <div style=""text-align:center;"">
                        <p style=""color:green; font-size:24px;"">Correct!</p><p>You now have 7 points.</p>
                        <p> Press any key to continue. </p>
                    </div>
                    "
,,html-keyboard-response,29,2.0.0,369820,uebg0409r3,692638df063c96e069476515,69323fba3bc587f4386c8241,30,socialPredictionGame,,,,"{""R"":10,""P"":5,""S"":10,""T"":15}",10.0,15.0,10.0,5.0,SG,Green,def,F.A.,opt_nat,def,9.0,1.0,4213.599999904633,
,456.0,html-keyboard-response,30,2.0.0,370277,uebg0409r3,692638df063c96e069476515,69323fba3bc587f4386c8241,30,feedbackTrial,u,,,,,,,,,,,,,,,,,"
                    <div style=""text-align:center;"">
                        <p style=""color:green; font-size:24px;"">Correct!</p><p>You now have 8 points.</p>
                        <p> Press any key to continue. </p>
                    </div>
                    "
,,html-keyboard-response,31,2.0.0,376404,uebg0409r3,692638df063c96e069476515,69323fba3bc587f4386c8241,30,socialPredictionGame,,,,"{""R"":10,""P"":5,""S"":3,""T"":5}",3.0,5.0,10.0,5.0,SH,Purple,coop,F.A.,opt_nat,coop,8.0,1.0,6125.700000047684,
,1413.0,html-keyboard-response,32,2.0.0,377817,uebg0409r3,692638df063c96e069476515,69323fba3bc587f4386c8241,30,feedbackTrial,j,,,,,,,,,,,,,,,,,"
                    <div style=""text-align:center;"">
                        <p style=""color:green; font-size:24px;"">Correct!</p><p>You now have 9 points.</p>
                        <p> Press any key to continue. </p>
                    </div>
                    "
,,html-keyboard-response,33,2.0.0,383642,uebg0409r3,692638df063c96e069476515,69323fba3bc587f4386c8241,30,socialPredictionGame,,,,"{""R"":10,""P"":5,""S"":7,""T"":8}",7.0,8.0,10.0,5.0,HG,Purple,coop,F.A.,opt_nat,coop,9.0,1.0,5824.700000047684,
,1258.0,html-keyboard-response,34,2.0.0,384900,uebg0409r3,692638df063c96e069476515,69323fba3bc587f4386c8241,30,feedbackTrial,h,,,,,,,,,,,,,,,,,"
                    <div style=""text-align:center;"">
                        <p style=""color:green; font-size:24px;"">Correct!</p><p>You now have 10 points.</p>
                        <p> Press any key to continue. </p>
                    </div>
                    "
,,html-keyboard-response,35,2.0.0,390271,uebg0409r3,692638df063c96e069476515,69323fba3bc587f4386c8241,30,socialPredictionGame,,,,"{""R"":10,""P"":5,""S"":10,""T"":12}",10.0,12.0,10.0,5.0,SG,Green,def,F.A.,opt_nat,def,9.0,1.0,5370.0,
,2230.0,html-keyboard-response,36,2.0.0,392501,uebg0409r3,692638df063c96e069476515,69323fba3bc587f4386c8241,30,feedbackTrial,u,,,,,,,,,,,,,,,,,"
                    <div style=""text-align:center;"">
                        <p style=""color:green; font-size:24px;"">Correct!</p><p>You now have 11 points.</p>
                        <p> Press any key to continue. </p>
                    </div>
                    "
,,html-keyboard-response,37,2.0.0,397167,uebg0409r3,692638df063c96e069476515,69323fba3bc587f4386c8241,30,socialPredictionGame,,,,"{""R"":10,""P"":5,""S"":0,""T"":8}",0.0,8.0,10.0,5.0,SH,Purple,coop,F.A.,opt_nat,coop,8.0,1.0,4664.900000095367,
,884.0,html-keyboard-response,38,2.0.0,398052,uebg0409r3,692638df063c96e069476515,69323fba3bc587f4386c8241,30,feedbackTrial,j,,,,,,,,,,,,,,,,,"
                    <div style=""text-align:center;"">
                        <p style=""color:green; font-size:24px;"">Correct!</p><p>You now have 12 points.</p>
                        <p> Press any key to continue. </p>
                    </div>
                    "
,,html-keyboard-response,39,2.0.0,403319,uebg0409r3,692638df063c96e069476515,69323fba3bc587f4386c8241,30,socialPredictionGame,,,,"{""R"":10,""P"":5,""S"":7,""T"":15}",7.0,15.0,10.0,5.0,SG,Green,def,F.A.,opt_nat,def,8.0,1.0,5266.599999904633,
,1029.0,html-keyboard-response,40,2.0.0,404348,uebg0409r3,692638df063c96e069476515,69323fba3bc587f4386c8241,30,feedbackTrial,j,,,,,,,,,,,,,,,,,"
                    <div style=""text-align:center;"">
                        <p style=""color:green; font-size:24px;"">Correct!</p><p>You now have 13 points.</p>
                        <p> Press any key to continue. </p>
                    </div>
                    "
,,html-keyboard-response,41,2.0.0,408368,uebg0409r3,692638df063c96e069476515,69323fba3bc587f4386c8241,30,socialPredictionGame,,,,"{""R"":10,""P"":5,""S"":0,""T"":5}",0.0,5.0,10.0,5.0,SH,Purple,coop,F.A.,opt_nat,coop,8.0,1.0,4018.899999856949,
,861.0,html-keyboard-response,42,2.0.0,409230,uebg0409r3,692638df063c96e069476515,69323fba3bc587f4386c8241,30,feedbackTrial,h,,,,,,,,,,,,,,,,,"
                    <div style=""text-align:center;"">
                        <p style=""color:green; font-size:24px;"">Correct!</p><p>You now have 14 points.</p>
                        <p> Press any key to continue. </p>
                    </div>
                    "
,9435.0,survey-html-form,43,2.1.0,418666,uebg0409r3,692638df063c96e069476515,69323fba3bc587f4386c8241,30,strategyPrediction,"{""strategyPrediction"":""Do not know!!""}",,,,,,,,,,,,,,,,,
"[{""page_index"":0,""viewing_time"":6583}]",6583.0,instructions,44,2.1.0,425249,uebg0409r3,692638df063c96e069476515,69323fba3bc587f4386c8241,30,,,,,,,,,,,,,,,,,,,
,,html-keyboard-response,45,2.0.0,432037,uebg0409r3,692638df063c96e069476515,69323fba3bc587f4386c8241,30,socialPredictionGame,,,,"{""R"":10,""P"":5,""S"":10,""T"":5}",10.0,5.0,10.0,5.0,HG,Blue,def,G.P.,opt_inv,def,9.0,1.0,6787.299999952316,
,1937.0,html-keyboard-response,46,2.0.0,433975,uebg0409r3,692638df063c96e069476515,69323fba3bc587f4386c8241,30,feedbackTrial,j,,,,,,,,,,,,,,,,,"
                    <div style=""text-align:center;"">
                        <p style=""color:green; font-size:24px;"">Correct!</p><p>You now have 15 points.</p>
                        <p> Press any key to continue. </p>
                    </div>
                    "
,,html-keyboard-response,47,2.0.0,437789,uebg0409r3,692638df063c96e069476515,69323fba3bc587f4386c8241,30,socialPredictionGame,,,,"{""R"":10,""P"":5,""S"":7,""T"":5}",7.0,5.0,10.0,5.0,HG,Red,coop,G.P.,opt_inv,def,9.0,0.0,3813.299999952316,
,752.0,html-keyboard-response,48,2.0.0,438541,uebg0409r3,692638df063c96e069476515,69323fba3bc587f4386c8241,30,feedbackTrial,j,,,,,,,,,,,,,,,,,"
                    <div style=""text-align:center;"">
                        <p style=""color:red; font-size:24px;"">Incorrect</p><p>You still have 15 points.</p>
                        <p> Press any key to continue. </p>
                    </div>
                    "
,,html-keyboard-response,49,2.0.0,443359,uebg0409r3,692638df063c96e069476515,69323fba3bc587f4386c8241,30,socialPredictionGame,,,,"{""R"":10,""P"":5,""S"":10,""T"":15}",10.0,15.0,10.0,5.0,SG,Blue,def,G.P.,opt_inv,coop,9.0,0.0,4816.600000143051,
,1161.0,html-keyboard-response,50,2.0.0,444520,uebg0409r3,692638df063c96e069476515,69323fba3bc587f4386c8241,30,feedbackTrial,n,,,,,,,,,,,,,,,,,"
                    <div style=""text-align:center;"">
                        <p style=""color:red; font-size:24px;"">Incorrect</p><p>You still have 15 points.</p>
                        <p> Press any key to continue. </p>
                    </div>
                    "
,,html-keyboard-response,51,2.0.0,450028,uebg0409r3,692638df063c96e069476515,69323fba3bc587f4386c8241,30,socialPredictionGame,,,,"{""R"":10,""P"":5,""S"":3,""T"":12}",3.0,12.0,10.0,5.0,PD,Blue,def,G.P.,opt_inv,coop,8.0,0.0,5506.700000047684,
,2104.0,html-keyboard-response,52,2.0.0,452132,uebg0409r3,692638df063c96e069476515,69323fba3bc587f4386c8241,30,feedbackTrial,n,,,,,,,,,,,,,,,,,"
                    <div style=""text-align:center;"">
                        <p style=""color:red; font-size:24px;"">Incorrect</p><p>You still have 15 points.</p>
                        <p> Press any key to continue. </p>
                    </div>
                    "
,,html-keyboard-response,53,2.0.0,457593,uebg0409r3,692638df063c96e069476515,69323fba3bc587f4386c8241,30,socialPredictionGame,,,,"{""R"":10,""P"":5,""S"":3,""T"":8}",3.0,8.0,10.0,5.0,SH,Red,coop,G.P.,opt_inv,def,4.0,0.0,5461.0,
,2013.0,html-keyboard-response,54,2.0.0,459606,uebg0409r3,692638df063c96e069476515,69323fba3bc587f4386c8241,30,feedbackTrial,n,,,,,,,,,,,,,,,,,"
                    <div style=""text-align:center;"">
                        <p style=""color:red; font-size:24px;"">Incorrect</p><p>You still have 15 points.</p>
                        <p> Press any key to continue. </p>
                    </div>
                    "
,,html-keyboard-response,55,2.0.0,466144,uebg0409r3,692638df063c96e069476515,69323fba3bc587f4386c8241,30,socialPredictionGame,,,,"{""R"":10,""P"":5,""S"":3,""T"":5}",3.0,5.0,10.0,5.0,SH,Blue,def,G.P.,opt_inv,def,8.0,1.0,6537.299999952316,
,2395.0,html-keyboard-response,56,2.0.0,468540,uebg0409r3,692638df063c96e069476515,69323fba3bc587f4386c8241,30,feedbackTrial,i,,,,,,,,,,,,,,,,,"
                    <div style=""text-align:center;"">
                        <p style=""color:green; font-size:24px;"">Correct!</p><p>You now have 16 points.</p>
                        <p> Press any key to continue. </p>
                    </div>
                    "
,,html-keyboard-response,57,2.0.0,472217,uebg0409r3,692638df063c96e069476515,69323fba3bc587f4386c8241,30,socialPredictionGame,,,,"{""R"":10,""P"":5,""S"":0,""T"":12}",0.0,12.0,10.0,5.0,PD,Blue,def,G.P.,opt_inv,coop,8.0,0.0,3675.899999856949,
,3056.0,html-keyboard-response,58,2.0.0,475274,uebg0409r3,692638df063c96e069476515,69323fba3bc587f4386c8241,30,feedbackTrial,u,,,,,,,,,,,,,,,,,"
                    <div style=""text-align:center;"">
                        <p style=""color:red; font-size:24px;"">Incorrect</p><p>You still have 16 points.</p>
                        <p> Press any key to continue. </p>
                    </div>
                    "
,,html-keyboard-response,59,2.0.0,478674,uebg0409r3,692638df063c96e069476515,69323fba3bc587f4386c8241,30,socialPredictionGame,,,,"{""R"":10,""P"":5,""S"":0,""T"":15}",0.0,15.0,10.0,5.0,PD,Blue,def,G.P.,opt_inv,coop,8.0,0.0,3399.600000143051,
,2555.0,html-keyboard-response,60,2.0.0,481229,uebg0409r3,692638df063c96e069476515,69323fba3bc587f4386c8241,30,feedbackTrial,u,,,,,,,,,,,,,,,,,"
                    <div style=""text-align:center;"">
                        <p style=""color:red; font-size:24px;"">Incorrect</p><p>You still have 16 points.</p>
                        <p> Press any key to continue. </p>
                    </div>
                    "
,,html-keyboard-response,61,2.0.0,485446,uebg0409r3,692638df063c96e069476515,69323fba3bc587f4386c8241,30,socialPredictionGame,,,,"{""R"":10,""P"":5,""S"":10,""T"":12}",10.0,12.0,10.0,5.0,SG,Red,coop,G.P.,opt_inv,coop,8.0,1.0,4215.400000095367,
,2345.0,html-keyboard-response,62,2.0.0,487791,uebg0409r3,692638df063c96e069476515,69323fba3bc587f4386c8241,30,feedbackTrial,h,,,,,,,,,,,,,,,,,"
                    <div style=""text-align:center;"">
                        <p style=""color:green; font-size:24px;"">Correct!</p><p>You now have 17 points.</p>
                        <p> Press any key to continue. </p>
                    </div>
                    "
,,html-keyboard-response,63,2.0.0,494148,uebg0409r3,692638df063c96e069476515,69323fba3bc587f4386c8241,30,socialPredictionGame,,,,"{""R"":10,""P"":5,""S"":7,""T"":12}",7.0,12.0,10.0,5.0,SG,Red,coop,G.P.,opt_inv,coop,7.0,1.0,6355.5,
,1703.0,html-keyboard-response,64,2.0.0,495851,uebg0409r3,692638df063c96e069476515,69323fba3bc587f4386c8241,30,feedbackTrial,j,,,,,,,,,,,,,,,,,"
                    <div style=""text-align:center;"">
                        <p style=""color:green; font-size:24px;"">Correct!</p><p>You now have 18 points.</p>
                        <p> Press any key to continue. </p>
                    </div>
                    "
,,html-keyboard-response,65,2.0.0,500437,uebg0409r3,692638df063c96e069476515,69323fba3bc587f4386c8241,30,socialPredictionGame,,,,"{""R"":10,""P"":5,""S"":10,""T"":8}",10.0,8.0,10.0,5.0,HG,Red,coop,G.P.,opt_inv,def,8.0,0.0,4585.5,
,512.0,html-keyboard-response,66,2.0.0,500949,uebg0409r3,692638df063c96e069476515,69323fba3bc587f4386c8241,30,feedbackTrial,u,,,,,,,,,,,,,,,,,"
                    <div style=""text-align:center;"">
                        <p style=""color:red; font-size:24px;"">Incorrect</p><p>You still have 18 points.</p>
                        <p> Press any key to continue. </p>
                    </div>
                    "
,,html-keyboard-response,67,2.0.0,503354,uebg0409r3,692638df063c96e069476515,69323fba3bc587f4386c8241,30,socialPredictionGame,,,,"{""R"":10,""P"":5,""S"":3,""T"":15}",3.0,15.0,10.0,5.0,PD,Blue,def,G.P.,opt_inv,coop,6.0,0.0,2403.599999904633,
,613.0,html-keyboard-response,68,2.0.0,503967,uebg0409r3,692638df063c96e069476515,69323fba3bc587f4386c8241,30,feedbackTrial,u,,,,,,,,,,,,,,,,,"
                    <div style=""text-align:center;"">
                        <p style=""color:red; font-size:24px;"">Incorrect</p><p>You still have 18 points.</p>
                        <p> Press any key to continue. </p>
                    </div>
                    "
,,html-keyboard-response,69,2.0.0,508389,uebg0409r3,692638df063c96e069476515,69323fba3bc587f4386c8241,30,socialPredictionGame,,,,"{""R"":10,""P"":5,""S"":7,""T"":8}",7.0,8.0,10.0,5.0,HG,Red,coop,G.P.,opt_inv,def,7.0,0.0,4421.600000143051,
,1502.0,html-keyboard-response,70,2.0.0,509892,uebg0409r3,692638df063c96e069476515,69323fba3bc587f4386c8241,30,feedbackTrial,n,,,,,,,,,,,,,,,,,"
                    <div style=""text-align:center;"">
                        <p style=""color:red; font-size:24px;"">Incorrect</p><p>You still have 18 points.</p>
                        <p> Press any key to continue. </p>
                    </div>
                    "
,,html-keyboard-response,71,2.0.0,514228,uebg0409r3,692638df063c96e069476515,69323fba3bc587f4386c8241,30,socialPredictionGame,,,,"{""R"":10,""P"":5,""S"":7,""T"":15}",7.0,15.0,10.0,5.0,SG,Blue,def,G.P.,opt_inv,coop,7.0,0.0,4336.200000047684,
,1679.0,html-keyboard-response,72,2.0.0,515907,uebg0409r3,692638df063c96e069476515,69323fba3bc587f4386c8241,30,feedbackTrial,n,,,,,,,,,,,,,,,,,"
                    <div style=""text-align:center;"">
                        <p style=""color:red; font-size:24px;"">Incorrect</p><p>You still have 18 points.</p>
                        <p> Press any key to continue. </p>
                    </div>
                    "
,,html-keyboard-response,73,2.0.0,520903,uebg0409r3,692638df063c96e069476515,69323fba3bc587f4386c8241,30,socialPredictionGame,,,,"{""R"":10,""P"":5,""S"":0,""T"":8}",0.0,8.0,10.0,5.0,SH,Red,coop,G.P.,opt_inv,def,7.0,0.0,4994.900000095367,
,1434.0,html-keyboard-response,74,2.0.0,522338,uebg0409r3,692638df063c96e069476515,69323fba3bc587f4386c8241,30,feedbackTrial,u,,,,,,,,,,,,,,,,,"
                    <div style=""text-align:center;"">
                        <p style=""color:red; font-size:24px;"">Incorrect</p><p>You still have 18 points.</p>
                        <p> Press any key to continue. </p>
                    </div>
                    "
,,html-keyboard-response,75,2.0.0,525260,uebg0409r3,692638df063c96e069476515,69323fba3bc587f4386c8241,30,socialPredictionGame,,,,"{""R"":10,""P"":5,""S"":0,""T"":5}",0.0,5.0,10.0,5.0,SH,Blue,def,G.P.,opt_inv,def,7.0,1.0,2921.7999999523163,
,2663.0,html-keyboard-response,76,2.0.0,527924,uebg0409r3,692638df063c96e069476515,69323fba3bc587f4386c8241,30,feedbackTrial,h,,,,,,,,,,,,,,,,,"
                    <div style=""text-align:center;"">
                        <p style=""color:green; font-size:24px;"">Correct!</p><p>You now have 19 points.</p>
                        <p> Press any key to continue. </p>
                    </div>
                    "
,8696.0,survey-html-form,77,2.1.0,536620,uebg0409r3,692638df063c96e069476515,69323fba3bc587f4386c8241,30,strategyPrediction,"{""strategyPrediction"":""No clue...""}",,,,,,,,,,,,,,,,,
"[{""page_index"":0,""viewing_time"":4484}]",4484.0,instructions,78,2.1.0,541105,uebg0409r3,692638df063c96e069476515,69323fba3bc587f4386c8241,30,,,,,,,,,,,,,,,,,,,
,,html-keyboard-response,79,2.0.0,553392,uebg0409r3,692638df063c96e069476515,69323fba3bc587f4386c8241,30,socialPredictionGame,,,,"{""R"":10,""P"":5,""S"":0,""T"":12}",0.0,12.0,10.0,5.0,PD,Purple,def,D.T.,pess_nat,def,7.0,1.0,12287.0,
,2755.0,html-keyboard-response,80,2.0.0,556148,uebg0409r3,692638df063c96e069476515,69323fba3bc587f4386c8241,30,feedbackTrial,j,,,,,,,,,,,,,,,,,"
                    <div style=""text-align:center;"">
                        <p style=""color:green; font-size:24px;"">Correct!</p><p>You now have 20 points.</p>
                        <p> Press any key to continue. </p>
                    </div>
                    "
,,html-keyboard-response,81,2.0.0,560695,uebg0409r3,692638df063c96e069476515,69323fba3bc587f4386c8241,30,socialPredictionGame,,,,"{""R"":10,""P"":5,""S"":0,""T"":15}",0.0,15.0,10.0,5.0,PD,Purple,def,D.T.,pess_nat,def,9.0,1.0,4546.300000190735,
,1158.0,html-keyboard-response,82,2.0.0,561854,uebg0409r3,692638df063c96e069476515,69323fba3bc587f4386c8241,30,feedbackTrial,j,,,,,,,,,,,,,,,,,"
                    <div style=""text-align:center;"">
                        <p style=""color:green; font-size:24px;"">Correct!</p><p>You now have 21 points.</p>
                        <p> Press any key to continue. </p>
                    </div>
                    "
,,html-keyboard-response,83,2.0.0,565765,uebg0409r3,692638df063c96e069476515,69323fba3bc587f4386c8241,30,socialPredictionGame,,,,"{""R"":10,""P"":5,""S"":7,""T"":8}",7.0,8.0,10.0,5.0,HG,Red,coop,D.T.,pess_nat,coop,8.0,1.0,3910.900000095367,
,1062.0,html-keyboard-response,84,2.0.0,566828,uebg0409r3,692638df063c96e069476515,69323fba3bc587f4386c8241,30,feedbackTrial,h,,,,,,,,,,,,,,,,,"
                    <div style=""text-align:center;"">
                        <p style=""color:green; font-size:24px;"">Correct!</p><p>You now have 22 points.</p>
                        <p> Press any key to continue. </p>
                    </div>
                    "
,,html-keyboard-response,85,2.0.0,571424,uebg0409r3,692638df063c96e069476515,69323fba3bc587f4386c8241,30,socialPredictionGame,,,,"{""R"":10,""P"":5,""S"":3,""T"":8}",3.0,8.0,10.0,5.0,SH,Red,coop,D.T.,pess_nat,def,9.0,0.0,4595.599999904633,
,624.0,html-keyboard-response,86,2.0.0,572049,uebg0409r3,692638df063c96e069476515,69323fba3bc587f4386c8241,30,feedbackTrial,h,,,,,,,,,,,,,,,,,"
                    <div style=""text-align:center;"">
                        <p style=""color:red; font-size:24px;"">Incorrect</p><p>You still have 22 points.</p>
                        <p> Press any key to continue. </p>
                    </div>
                    "
,,html-keyboard-response,87,2.0.0,575263,uebg0409r3,692638df063c96e069476515,69323fba3bc587f4386c8241,30,socialPredictionGame,,,,"{""R"":10,""P"":5,""S"":7,""T"":15}",7.0,15.0,10.0,5.0,SG,Purple,def,D.T.,pess_nat,coop,8.0,0.0,3213.2000000476837,
,748.0,html-keyboard-response,88,2.0.0,576011,uebg0409r3,692638df063c96e069476515,69323fba3bc587f4386c8241,30,feedbackTrial,h,,,,,,,,,,,,,,,,,"
                    <div style=""text-align:center;"">
                        <p style=""color:red; font-size:24px;"">Incorrect</p><p>You still have 22 points.</p>
                        <p> Press any key to continue. </p>
                    </div>
                    "
,,html-keyboard-response,89,2.0.0,580021,uebg0409r3,692638df063c96e069476515,69323fba3bc587f4386c8241,30,socialPredictionGame,,,,"{""R"":10,""P"":5,""S"":7,""T"":5}",7.0,5.0,10.0,5.0,HG,Red,coop,D.T.,pess_nat,coop,7.0,1.0,4009.099999904633,
,1959.0,html-keyboard-response,90,2.0.0,581981,uebg0409r3,692638df063c96e069476515,69323fba3bc587f4386c8241,30,feedbackTrial,j,,,,,,,,,,,,,,,,,"
                    <div style=""text-align:center;"">
                        <p style=""color:green; font-size:24px;"">Correct!</p><p>You now have 23 points.</p>
                        <p> Press any key to continue. </p>
                    </div>
                    "
,,html-keyboard-response,91,2.0.0,584864,uebg0409r3,692638df063c96e069476515,69323fba3bc587f4386c8241,30,socialPredictionGame,,,,"{""R"":10,""P"":5,""S"":3,""T"":5}",3.0,5.0,10.0,5.0,SH,Red,coop,D.T.,pess_nat,def,8.0,0.0,2882.900000095367,
,1212.0,html-keyboard-response,92,2.0.0,586077,uebg0409r3,692638df063c96e069476515,69323fba3bc587f4386c8241,30,feedbackTrial,n,,,,,,,,,,,,,,,,,"
                    <div style=""text-align:center;"">
                        <p style=""color:red; font-size:24px;"">Incorrect</p><p>You still have 23 points.</p>
                        <p> Press any key to continue. </p>
                    </div>
                    "
,,html-keyboard-response,93,2.0.0,591341,uebg0409r3,692638df063c96e069476515,69323fba3bc587f4386c8241,30,socialPredictionGame,,,,"{""R"":10,""P"":5,""S"":0,""T"":5}",0.0,5.0,10.0,5.0,SH,Red,coop,D.T.,pess_nat,def,7.0,0.0,5263.199999809265,
,1925.0,html-keyboard-response,94,2.0.0,593266,uebg0409r3,692638df063c96e069476515,69323fba3bc587f4386c8241,30,feedbackTrial,b,,,,,,,,,,,,,,,,,"
                    <div style=""text-align:center;"">
                        <p style=""color:red; font-size:24px;"">Incorrect</p><p>You still have 23 points.</p>
                        <p> Press any key to continue. </p>
                    </div>
                    "
,,html-keyboard-response,95,2.0.0,596082,uebg0409r3,692638df063c96e069476515,69323fba3bc587f4386c8241,30,socialPredictionGame,,,,"{""R"":10,""P"":5,""S"":7,""T"":12}",7.0,12.0,10.0,5.0,SG,Purple,def,D.T.,pess_nat,coop,7.0,0.0,2815.2999999523163,
,2057.0,html-keyboard-response,96,2.0.0,598139,uebg0409r3,692638df063c96e069476515,69323fba3bc587f4386c8241,30,feedbackTrial,n,,,,,,,,,,,,,,,,,"
                    <div style=""text-align:center;"">
                        <p style=""color:red; font-size:24px;"">Incorrect</p><p>You still have 23 points.</p>
                        <p> Press any key to continue. </p>
                    </div>
                    "
,,html-keyboard-response,97,2.0.0,604014,uebg0409r3,692638df063c96e069476515,69323fba3bc587f4386c8241,30,socialPredictionGame,,,,"{""R"":10,""P"":5,""S"":3,""T"":15}",3.0,15.0,10.0,5.0,PD,Purple,def,D.T.,pess_nat,def,6.0,1.0,5873.5,
,2199.0,html-keyboard-response,98,2.0.0,606213,uebg0409r3,692638df063c96e069476515,69323fba3bc587f4386c8241,30,feedbackTrial,h,,,,,,,,,,,,,,,,,"
                    <div style=""text-align:center;"">
                        <p style=""color:green; font-size:24px;"">Correct!</p><p>You now have 24 points.</p>
                        <p> Press any key to continue. </p>
                    </div>
                    "
,,html-keyboard-response,99,2.0.0,613671,uebg0409r3,692638df063c96e069476515,69323fba3bc587f4386c8241,30,socialPredictionGame,,,,"{""R"":10,""P"":5,""S"":3,""T"":12}",3.0,12.0,10.0,5.0,PD,Red,coop,D.T.,pess_nat,def,8.0,0.0,7457.200000047684,
,1879.0,html-keyboard-response,100,2.0.0,615551,uebg0409r3,692638df063c96e069476515,69323fba3bc587f4386c8241,30,feedbackTrial,j,,,,,,,,,,,,,,,,,"
                    <div style=""text-align:center;"">
                        <p style=""color:red; font-size:24px;"">Incorrect</p><p>You still have 24 points.</p>
                        <p> Press any key to continue. </p>
                    </div>
                    "
,,html-keyboard-response,101,2.0.0,618562,uebg0409r3,692638df063c96e069476515,69323fba3bc587f4386c8241,30,socialPredictionGame,,,,"{""R"":10,""P"":5,""S"":10,""T"":8}",10.0,8.0,10.0,5.0,HG,Purple,def,D.T.,pess_nat,coop,6.0,0.0,3009.5,
,489.0,html-keyboard-response,102,2.0.0,619051,uebg0409r3,692638df063c96e069476515,69323fba3bc587f4386c8241,30,feedbackTrial,j,,,,,,,,,,,,,,,,,"
                    <div style=""text-align:center;"">
                        <p style=""color:red; font-size:24px;"">Incorrect</p><p>You still have 24 points.</p>
                        <p> Press any key to continue. </p>
                    </div>
                    "
,,html-keyboard-response,103,2.0.0,621652,uebg0409r3,692638df063c96e069476515,69323fba3bc587f4386c8241,30,socialPredictionGame,,,,"{""R"":10,""P"":5,""S"":0,""T"":8}",0.0,8.0,10.0,5.0,SH,Red,coop,D.T.,pess_nat,def,6.0,0.0,2600.399999856949,
,2949.0,html-keyboard-response,104,2.0.0,624602,uebg0409r3,692638df063c96e069476515,69323fba3bc587f4386c8241,30,feedbackTrial,j,,,,,,,,,,,,,,,,,"
                    <div style=""text-align:center;"">
                        <p style=""color:red; font-size:24px;"">Incorrect</p><p>You still have 24 points.</p>
                        <p> Press any key to continue. </p>
                    </div>
                    "
,,html-keyboard-response,105,2.0.0,629141,uebg0409r3,692638df063c96e069476515,69323fba3bc587f4386c8241,30,socialPredictionGame,,,,"{""R"":10,""P"":5,""S"":10,""T"":15}",10.0,15.0,10.0,5.0,SG,Purple,def,D.T.,pess_nat,coop,7.0,0.0,4538.100000143051,
,2426.0,html-keyboard-response,106,2.0.0,631568,uebg0409r3,692638df063c96e069476515,69323fba3bc587f4386c8241,30,feedbackTrial,u,,,,,,,,,,,,,,,,,"
                    <div style=""text-align:center;"">
                        <p style=""color:red; font-size:24px;"">Incorrect</p><p>You still have 24 points.</p>
                        <p> Press any key to continue. </p>
                    </div>
                    "
,,html-keyboard-response,107,2.0.0,635783,uebg0409r3,692638df063c96e069476515,69323fba3bc587f4386c8241,30,socialPredictionGame,,,,"{""R"":10,""P"":5,""S"":10,""T"":12}",10.0,12.0,10.0,5.0,SG,Purple,def,D.T.,pess_nat,coop,6.0,0.0,4214.600000143051,
,3015.0,html-keyboard-response,108,2.0.0,638798,uebg0409r3,692638df063c96e069476515,69323fba3bc587f4386c8241,30,feedbackTrial,h,,,,,,,,,,,,,,,,,"
                    <div style=""text-align:center;"">
                        <p style=""color:red; font-size:24px;"">Incorrect</p><p>You still have 24 points.</p>
                        <p> Press any key to continue. </p>
                    </div>
                    "
,,html-keyboard-response,109,2.0.0,640320,uebg0409r3,692638df063c96e069476515,69323fba3bc587f4386c8241,30,socialPredictionGame,,,,"{""R"":10,""P"":5,""S"":10,""T"":5}",10.0,5.0,10.0,5.0,HG,Red,coop,D.T.,pess_nat,coop,7.0,1.0,1521.2000000476835,
,1310.0,html-keyboard-response,110,2.0.0,641631,uebg0409r3,692638df063c96e069476515,69323fba3bc587f4386c8241,30,feedbackTrial,j,,,,,,,,,,,,,,,,,"
                    <div style=""text-align:center;"">
                        <p style=""color:green; font-size:24px;"">Correct!</p><p>You now have 25 points.</p>
                        <p> Press any key to continue. </p>
                    </div>
                    "
,7779.0,survey-html-form,111,2.1.0,649411,uebg0409r3,692638df063c96e069476515,69323fba3bc587f4386c8241,30,strategyPrediction,"{""strategyPrediction"":""Wish I knew...""}",,,,,,,,,,,,,,,,,
"[{""page_index"":0,""viewing_time"":2639}]",2639.0,instructions,112,2.1.0,652050,uebg0409r3,692638df063c96e069476515,69323fba3bc587f4386c8241,30,,,,,,,,,,,,,,,,,,,
,,html-keyboard-response,113,2.0.0,656730,uebg0409r3,692638df063c96e069476515,69323fba3bc587f4386c8241,30,socialPredictionGame,,,,"{""R"":10,""P"":5,""S"":3,""T"":15}",3.0,15.0,10.0,5.0,PD,Green,def,E.B.,pess_inv,coop,8.0,0.0,4679.200000047684,
,2484.0,html-keyboard-response,114,2.0.0,659215,uebg0409r3,692638df063c96e069476515,69323fba3bc587f4386c8241,30,feedbackTrial,u,,,,,,,,,,,,,,,,,"
                    <div style=""text-align:center;"">
                        <p style=""color:red; font-size:24px;"">Incorrect</p><p>You still have 25 points.</p>
                        <p> Press any key to continue. </p>
                    </div>
                    "
,,html-keyboard-response,115,2.0.0,662014,uebg0409r3,692638df063c96e069476515,69323fba3bc587f4386c8241,30,socialPredictionGame,,,,"{""R"":10,""P"":5,""S"":7,""T"":12}",7.0,12.0,10.0,5.0,SG,Blue,coop,E.B.,pess_inv,def,7.0,0.0,2798.899999856949,
,1618.0,html-keyboard-response,116,2.0.0,663633,uebg0409r3,692638df063c96e069476515,69323fba3bc587f4386c8241,30,feedbackTrial,j,,,,,,,,,,,,,,,,,"
                    <div style=""text-align:center;"">
                        <p style=""color:red; font-size:24px;"">Incorrect</p><p>You still have 25 points.</p>
                        <p> Press any key to continue. </p>
                    </div>
                    "
,,html-keyboard-response,117,2.0.0,665350,uebg0409r3,692638df063c96e069476515,69323fba3bc587f4386c8241,30,socialPredictionGame,,,,"{""R"":10,""P"":5,""S"":10,""T"":15}",10.0,15.0,10.0,5.0,SG,Green,def,E.B.,pess_inv,def,6.0,1.0,1716.7999999523165,
,1746.0,html-keyboard-response,118,2.0.0,667097,uebg0409r3,692638df063c96e069476515,69323fba3bc587f4386c8241,30,feedbackTrial,n,,,,,,,,,,,,,,,,,"
                    <div style=""text-align:center;"">
                        <p style=""color:green; font-size:24px;"">Correct!</p><p>You now have 26 points.</p>
                        <p> Press any key to continue. </p>
                    </div>
                    "
,,html-keyboard-response,119,2.0.0,668697,uebg0409r3,692638df063c96e069476515,69323fba3bc587f4386c8241,30,socialPredictionGame,,,,"{""R"":10,""P"":5,""S"":7,""T"":5}",7.0,5.0,10.0,5.0,HG,Green,def,E.B.,pess_inv,def,6.0,1.0,1599.7999999523165,
,770.0,html-keyboard-response,120,2.0.0,669468,uebg0409r3,692638df063c96e069476515,69323fba3bc587f4386c8241,30,feedbackTrial,n,,,,,,,,,,,,,,,,,"
                    <div style=""text-align:center;"">
                        <p style=""color:green; font-size:24px;"">Correct!</p><p>You now have 27 points.</p>
                        <p> Press any key to continue. </p>
                    </div>
                    "
,,html-keyboard-response,121,2.0.0,672570,uebg0409r3,692638df063c96e069476515,69323fba3bc587f4386c8241,30,socialPredictionGame,,,,"{""R"":10,""P"":5,""S"":3,""T"":8}",3.0,8.0,10.0,5.0,SH,Green,def,E.B.,pess_inv,coop,6.0,0.0,3101.5,
,2849.0,html-keyboard-response,122,2.0.0,675419,uebg0409r3,692638df063c96e069476515,69323fba3bc587f4386c8241,30,feedbackTrial,j,,,,,,,,,,,,,,,,,"
                    <div style=""text-align:center;"">
                        <p style=""color:red; font-size:24px;"">Incorrect</p><p>You still have 27 points.</p>
                        <p> Press any key to continue. </p>
                    </div>
                    "
,,html-keyboard-response,123,2.0.0,677511,uebg0409r3,692638df063c96e069476515,69323fba3bc587f4386c8241,30,socialPredictionGame,,,,"{""R"":10,""P"":5,""S"":3,""T"":5}",3.0,5.0,10.0,5.0,SH,Blue,coop,E.B.,pess_inv,coop,8.0,1.0,2091.0,
,761.0,html-keyboard-response,124,2.0.0,678273,uebg0409r3,692638df063c96e069476515,69323fba3bc587f4386c8241,30,feedbackTrial,j,,,,,,,,,,,,,,,,,"
                    <div style=""text-align:center;"">
                        <p style=""color:green; font-size:24px;"">Correct!</p><p>You now have 28 points.</p>
                        <p> Press any key to continue. </p>
                    </div>
                    "
,,html-keyboard-response,125,2.0.0,680101,uebg0409r3,692638df063c96e069476515,69323fba3bc587f4386c8241,30,socialPredictionGame,,,,"{""R"":10,""P"":5,""S"":0,""T"":8}",0.0,8.0,10.0,5.0,SH,Blue,coop,E.B.,pess_inv,coop,7.0,1.0,1827.2000000476835,
,1507.0,html-keyboard-response,126,2.0.0,681608,uebg0409r3,692638df063c96e069476515,69323fba3bc587f4386c8241,30,feedbackTrial,j,,,,,,,,,,,,,,,,,"
                    <div style=""text-align:center;"">
                        <p style=""color:green; font-size:24px;"">Correct!</p><p>You now have 29 points.</p>
                        <p> Press any key to continue. </p>
                    </div>
                    "
,,html-keyboard-response,127,2.0.0,683610,uebg0409r3,692638df063c96e069476515,69323fba3bc587f4386c8241,30,socialPredictionGame,,,,"{""R"":10,""P"":5,""S"":0,""T"":5}",0.0,5.0,10.0,5.0,SH,Green,def,E.B.,pess_inv,coop,8.0,0.0,2001.5,
,1283.0,html-keyboard-response,128,2.0.0,684894,uebg0409r3,692638df063c96e069476515,69323fba3bc587f4386c8241,30,feedbackTrial,j,,,,,,,,,,,,,,,,,"
                    <div style=""text-align:center;"">
                        <p style=""color:red; font-size:24px;"">Incorrect</p><p>You still have 29 points.</p>
                        <p> Press any key to continue. </p>
                    </div>
                    "
,,html-keyboard-response,129,2.0.0,686799,uebg0409r3,692638df063c96e069476515,69323fba3bc587f4386c8241,30,socialPredictionGame,,,,"{""R"":10,""P"":5,""S"":7,""T"":8}",7.0,8.0,10.0,5.0,HG,Blue,coop,E.B.,pess_inv,def,7.0,0.0,1904.3999998569489,
,1104.0,html-keyboard-response,130,2.0.0,687904,uebg0409r3,692638df063c96e069476515,69323fba3bc587f4386c8241,30,feedbackTrial,n,,,,,,,,,,,,,,,,,"
                    <div style=""text-align:center;"">
                        <p style=""color:red; font-size:24px;"">Incorrect</p><p>You still have 29 points.</p>
                        <p> Press any key to continue. </p>
                    </div>
                    "
,,html-keyboard-response,131,2.0.0,689691,uebg0409r3,692638df063c96e069476515,69323fba3bc587f4386c8241,30,socialPredictionGame,,,,"{""R"":10,""P"":5,""S"":0,""T"":12}",0.0,12.0,10.0,5.0,PD,Green,def,E.B.,pess_inv,coop,7.0,0.0,1786.0999999046326,
,1328.0,html-keyboard-response,132,2.0.0,691020,uebg0409r3,692638df063c96e069476515,69323fba3bc587f4386c8241,30,feedbackTrial,n,,,,,,,,,,,,,,,,,"
                    <div style=""text-align:center;"">
                        <p style=""color:red; font-size:24px;"">Incorrect</p><p>You still have 29 points.</p>
                        <p> Press any key to continue. </p>
                    </div>
                    "
,,html-keyboard-response,133,2.0.0,693149,uebg0409r3,692638df063c96e069476515,69323fba3bc587f4386c8241,30,socialPredictionGame,,,,"{""R"":10,""P"":5,""S"":10,""T"":12}",10.0,12.0,10.0,5.0,SG,Blue,coop,E.B.,pess_inv,def,7.0,0.0,2128.7000000476837,
,874.0,html-keyboard-response,134,2.0.0,694024,uebg0409r3,692638df063c96e069476515,69323fba3bc587f4386c8241,30,feedbackTrial,n,,,,,,,,,,,,,,,,,"
                    <div style=""text-align:center;"">
                        <p style=""color:red; font-size:24px;"">Incorrect</p><p>You still have 29 points.</p>
                        <p> Press any key to continue. </p>
                    </div>
                    "
,,html-keyboard-response,135,2.0.0,697282,uebg0409r3,692638df063c96e069476515,69323fba3bc587f4386c8241,30,socialPredictionGame,,,,"{""R"":10,""P"":5,""S"":7,""T"":15}",7.0,15.0,10.0,5.0,SG,Green,def,E.B.,pess_inv,def,8.0,1.0,3257.5,
,2630.0,html-keyboard-response,136,2.0.0,699913,uebg0409r3,692638df063c96e069476515,69323fba3bc587f4386c8241,30,feedbackTrial,j,,,,,,,,,,,,,,,,,"
                    <div style=""text-align:center;"">
                        <p style=""color:green; font-size:24px;"">Correct!</p><p>You now have 30 points.</p>
                        <p> Press any key to continue. </p>
                    </div>
                    "
,,html-keyboard-response,137,2.0.0,702879,uebg0409r3,692638df063c96e069476515,69323fba3bc587f4386c8241,30,socialPredictionGame,,,,"{""R"":10,""P"":5,""S"":10,""T"":8}",10.0,8.0,10.0,5.0,HG,Blue,coop,E.B.,pess_inv,def,8.0,0.0,2965.5,
,1593.0,html-keyboard-response,138,2.0.0,704473,uebg0409r3,692638df063c96e069476515,69323fba3bc587f4386c8241,30,feedbackTrial,u,,,,,,,,,,,,,,,,,"
                    <div style=""text-align:center;"">
                        <p style=""color:red; font-size:24px;"">Incorrect</p><p>You still have 30 points.</p>
                        <p> Press any key to continue. </p>
                    </div>
                    "
,,html-keyboard-response,139,2.0.0,706894,uebg0409r3,692638df063c96e069476515,69323fba3bc587f4386c8241,30,socialPredictionGame,,,,"{""R"":10,""P"":5,""S"":0,""T"":15}",0.0,15.0,10.0,5.0,PD,Green,def,E.B.,pess_inv,coop,7.0,0.0,2419.899999856949,
,1880.0,html-keyboard-response,140,2.0.0,708774,uebg0409r3,692638df063c96e069476515,69323fba3bc587f4386c8241,30,feedbackTrial,h,,,,,,,,,,,,,,,,,"
                    <div style=""text-align:center;"">
                        <p style=""color:red; font-size:24px;"">Incorrect</p><p>You still have 30 points.</p>
                        <p> Press any key to continue. </p>
                    </div>
                    "
,,html-keyboard-response,141,2.0.0,710374,uebg0409r3,692638df063c96e069476515,69323fba3bc587f4386c8241,30,socialPredictionGame,,,,"{""R"":10,""P"":5,""S"":10,""T"":5}",10.0,5.0,10.0,5.0,HG,Blue,coop,E.B.,pess_inv,def,7.0,0.0,1599.2000000476835,
,1273.0,html-keyboard-response,142,2.0.0,711648,uebg0409r3,692638df063c96e069476515,69323fba3bc587f4386c8241,30,feedbackTrial,n,,,,,,,,,,,,,,,,,"
                    <div style=""text-align:center;"">
                        <p style=""color:red; font-size:24px;"">Incorrect</p><p>You still have 30 points.</p>
                        <p> Press any key to continue. </p>
                    </div>
                    "
,,html-keyboard-response,143,2.0.0,713087,uebg0409r3,692638df063c96e069476515,69323fba3bc587f4386c8241,30,socialPredictionGame,,,,"{""R"":10,""P"":5,""S"":3,""T"":12}",3.0,12.0,10.0,5.0,PD,Green,def,E.B.,pess_inv,coop,6.0,0.0,1438.6000001430511,
,1366.0,html-keyboard-response,144,2.0.0,714454,uebg0409r3,692638df063c96e069476515,69323fba3bc587f4386c8241,30,feedbackTrial,n,,,,,,,,,,,,,,,,,"
                    <div style=""text-align:center;"">
                        <p style=""color:red; font-size:24px;"">Incorrect</p><p>You still have 30 points.</p>
                        <p> Press any key to continue. </p>
                    </div>
                    "
,16762.0,survey-html-form,145,2.1.0,731216,uebg0409r3,692638df063c96e069476515,69323fba3bc587f4386c8241,30,strategyPrediction,"{""strategyPrediction"":""nope""}",,,,,,,,,,,,,,,,,
,9022.0,survey-html-form,146,2.1.0,740239,uebg0409r3,692638df063c96e069476515,69323fba3bc587f4386c8241,30,demographics,"{""age"":""73"",""gender"":""Female""}",,,,,,,,,,,,,,,,,
,27809.0,survey-html-form,147,2.1.0,768049,uebg0409r3,692638df063c96e069476515,69323fba3bc587f4386c8241,30,technical,"{""technical"":""None"",""feedback"":""Fun!""}",,,,,,,,,,,,,,,,,
