view_history,rt,trial_type,trial_index,plugin_version,time_elapsed,subjectID,studyID,sessionID,overallBonusPoints,task,response,question_order,success,Matrix,S,T,R,P,GameType,choice,GivenAns,Player,PlayerType,CorrAns,confidence,ScoreNum,time_on_trial,stimulus
[{"page_index":0,"viewing_time":3687},{"page_index":1,"viewing_time":5039}],8726,instructions,0,2.1.0,8734,vhq3djn0hj,693e609928541f4126f49c4b,693eec3f5d639ca880f70983,37,,,,,,,,,,,,,,,,,,,
[{"page_index":0,"viewing_time":53740}],53740,instructions,1,2.1.0,62478,vhq3djn0hj,693e609928541f4126f49c4b,693eec3f5d639ca880f70983,37,,,,,,,,,,,,,,,,,,,
[{"page_index":0,"viewing_time":3724}],3724,instructions,2,2.1.0,66204,vhq3djn0hj,693e609928541f4126f49c4b,693eec3f5d639ca880f70983,37,,,,,,,,,,,,,,,,,,,
,16032,survey-multi-choice,3,null,82240,vhq3djn0hj,693e609928541f4126f49c4b,693eec3f5d639ca880f70983,37,comprehensionCheck,{"task":"Choose the option the anonymized participant chose","incentive":"Yes—they received bonuses based on their performance"},[0,1],,,,,,,,,,,,,,,,
,1716,fullscreen,4,2.1.0,84961,vhq3djn0hj,693e609928541f4126f49c4b,693eec3f5d639ca880f70983,37,,,,true,,,,,,,,,,,,,,,
[{"page_index":0,"viewing_time":7359}],7359,instructions,5,2.1.0,92322,vhq3djn0hj,693e609928541f4126f49c4b,693eec3f5d639ca880f70983,37,,,,,,,,,,,,,,,,,,,
,,html-keyboard-response,6,2.0.0,113098,vhq3djn0hj,693e609928541f4126f49c4b,693eec3f5d639ca880f70983,37,playOwnGame,,,,{"R":10,"P":5,"S":0,"T":12},0,12,10,5,PD,Red,coop,,,,,,,
,,html-keyboard-response,7,2.0.0,129000,vhq3djn0hj,693e609928541f4126f49c4b,693eec3f5d639ca880f70983,37,playOwnGame,,,,{"R":10,"P":5,"S":3,"T":8},3,8,10,5,SH,Purple,def,,,,,,,
,,html-keyboard-response,8,2.0.0,135060,vhq3djn0hj,693e609928541f4126f49c4b,693eec3f5d639ca880f70983,37,playOwnGame,,,,{"R":10,"P":5,"S":10,"T":12},10,12,10,5,SG,Purple,def,,,,,,,
,,html-keyboard-response,9,2.0.0,140556,vhq3djn0hj,693e609928541f4126f49c4b,693eec3f5d639ca880f70983,37,playOwnGame,,,,{"R":10,"P":5,"S":10,"T":8},10,8,10,5,HG,Red,coop,,,,,,,
[{"page_index":0,"viewing_time":2234}],2234,instructions,10,2.1.0,142791,vhq3djn0hj,693e609928541f4126f49c4b,693eec3f5d639ca880f70983,37,,,,,,,,,,,,,,,,,,,
,,html-keyboard-response,11,2.0.0,166804,vhq3djn0hj,693e609928541f4126f49c4b,693eec3f5d639ca880f70983,37,socialPredictionGame,,,,{"R":10,"P":5,"S":3,"T":15},3,15,10,5,PD,Red,coop,D.T.,pess_inv,coop,6,1,24010.59999999404,
,2741,html-keyboard-response,12,2.0.0,169547,vhq3djn0hj,693e609928541f4126f49c4b,693eec3f5d639ca880f70983,37,feedbackTrial, ,,,,,,,,,,,,,,,,,
                    <div style="text-align:center;">
                        <p style="color:green; font-size:24px;">Correct!</p><p>You now have 1 points.</p>
                        <p> Press any key to continue. </p>
                    </div>
                    
,,html-keyboard-response,13,2.0.0,194350,vhq3djn0hj,693e609928541f4126f49c4b,693eec3f5d639ca880f70983,37,socialPredictionGame,,,,{"R":10,"P":5,"S":3,"T":5},3,5,10,5,SH,Red,coop,D.T.,pess_inv,coop,6,1,24801.5,
,2054,html-keyboard-response,14,2.0.0,196405,vhq3djn0hj,693e609928541f4126f49c4b,693eec3f5d639ca880f70983,37,feedbackTrial, ,,,,,,,,,,,,,,,,,
                    <div style="text-align:center;">
                        <p style="color:green; font-size:24px;">Correct!</p><p>You now have 2 points.</p>
                        <p> Press any key to continue. </p>
                    </div>
                    
,,html-keyboard-response,15,2.0.0,204352,vhq3djn0hj,693e609928541f4126f49c4b,693eec3f5d639ca880f70983,37,socialPredictionGame,,,,{"R":10,"P":5,"S":10,"T":5},10,5,10,5,HG,Red,coop,D.T.,pess_inv,def,6,0,7945.199999988079,
,2088,html-keyboard-response,16,2.0.0,206441,vhq3djn0hj,693e609928541f4126f49c4b,693eec3f5d639ca880f70983,37,feedbackTrial, ,,,,,,,,,,,,,,,,,
                    <div style="text-align:center;">
                        <p style="color:red; font-size:24px;">Incorrect</p><p>You still have 2 points.</p>
                        <p> Press any key to continue. </p>
                    </div>
                    
,,html-keyboard-response,17,2.0.0,217306,vhq3djn0hj,693e609928541f4126f49c4b,693eec3f5d639ca880f70983,37,socialPredictionGame,,,,{"R":10,"P":5,"S":10,"T":8},10,8,10,5,HG,Red,coop,D.T.,pess_inv,def,6,0,10863.09999999404,
,1316,html-keyboard-response,18,2.0.0,218623,vhq3djn0hj,693e609928541f4126f49c4b,693eec3f5d639ca880f70983,37,feedbackTrial, ,,,,,,,,,,,,,,,,,
                    <div style="text-align:center;">
                        <p style="color:red; font-size:24px;">Incorrect</p><p>You still have 2 points.</p>
                        <p> Press any key to continue. </p>
                    </div>
                    
,,html-keyboard-response,19,2.0.0,238984,vhq3djn0hj,693e609928541f4126f49c4b,693eec3f5d639ca880f70983,37,socialPredictionGame,,,,{"R":10,"P":5,"S":0,"T":15},0,15,10,5,PD,Red,coop,D.T.,pess_inv,coop,6,1,20359.70000000298,
,1303,html-keyboard-response,20,2.0.0,240288,vhq3djn0hj,693e609928541f4126f49c4b,693eec3f5d639ca880f70983,37,feedbackTrial, ,,,,,,,,,,,,,,,,,
                    <div style="text-align:center;">
                        <p style="color:green; font-size:24px;">Correct!</p><p>You now have 3 points.</p>
                        <p> Press any key to continue. </p>
                    </div>
                    
,,html-keyboard-response,21,2.0.0,266756,vhq3djn0hj,693e609928541f4126f49c4b,693eec3f5d639ca880f70983,37,socialPredictionGame,,,,{"R":10,"P":5,"S":0,"T":5},0,5,10,5,SH,Blue,def,D.T.,pess_inv,coop,5,0,26465.90000000596,
,1459,html-keyboard-response,22,2.0.0,268216,vhq3djn0hj,693e609928541f4126f49c4b,693eec3f5d639ca880f70983,37,feedbackTrial, ,,,,,,,,,,,,,,,,,
                    <div style="text-align:center;">
                        <p style="color:red; font-size:24px;">Incorrect</p><p>You still have 3 points.</p>
                        <p> Press any key to continue. </p>
                    </div>
                    
,,html-keyboard-response,23,2.0.0,288558,vhq3djn0hj,693e609928541f4126f49c4b,693eec3f5d639ca880f70983,37,socialPredictionGame,,,,{"R":10,"P":5,"S":7,"T":5},7,5,10,5,HG,Blue,def,D.T.,pess_inv,def,4,1,20340.5,
,1541,html-keyboard-response,24,2.0.0,290100,vhq3djn0hj,693e609928541f4126f49c4b,693eec3f5d639ca880f70983,37,feedbackTrial, ,,,,,,,,,,,,,,,,,
                    <div style="text-align:center;">
                        <p style="color:green; font-size:24px;">Correct!</p><p>You now have 4 points.</p>
                        <p> Press any key to continue. </p>
                    </div>
                    
,,html-keyboard-response,25,2.0.0,302146,vhq3djn0hj,693e609928541f4126f49c4b,693eec3f5d639ca880f70983,37,socialPredictionGame,,,,{"R":10,"P":5,"S":7,"T":12},7,12,10,5,SG,Blue,def,D.T.,pess_inv,def,6,1,12044.5,
,1255,html-keyboard-response,26,2.0.0,303402,vhq3djn0hj,693e609928541f4126f49c4b,693eec3f5d639ca880f70983,37,feedbackTrial, ,,,,,,,,,,,,,,,,,
                    <div style="text-align:center;">
                        <p style="color:green; font-size:24px;">Correct!</p><p>You now have 5 points.</p>
                        <p> Press any key to continue. </p>
                    </div>
                    
,,html-keyboard-response,27,2.0.0,314855,vhq3djn0hj,693e609928541f4126f49c4b,693eec3f5d639ca880f70983,37,socialPredictionGame,,,,{"R":10,"P":5,"S":3,"T":12},3,12,10,5,PD,Blue,def,D.T.,pess_inv,coop,7,0,11452,
,1345,html-keyboard-response,28,2.0.0,316202,vhq3djn0hj,693e609928541f4126f49c4b,693eec3f5d639ca880f70983,37,feedbackTrial, ,,,,,,,,,,,,,,,,,
                    <div style="text-align:center;">
                        <p style="color:red; font-size:24px;">Incorrect</p><p>You still have 5 points.</p>
                        <p> Press any key to continue. </p>
                    </div>
                    
,,html-keyboard-response,29,2.0.0,332975,vhq3djn0hj,693e609928541f4126f49c4b,693eec3f5d639ca880f70983,37,socialPredictionGame,,,,{"R":10,"P":5,"S":0,"T":12},0,12,10,5,PD,Blue,def,D.T.,pess_inv,coop,8,0,16773.09999999404,
,1399,html-keyboard-response,30,2.0.0,334375,vhq3djn0hj,693e609928541f4126f49c4b,693eec3f5d639ca880f70983,37,feedbackTrial, ,,,,,,,,,,,,,,,,,
                    <div style="text-align:center;">
                        <p style="color:red; font-size:24px;">Incorrect</p><p>You still have 5 points.</p>
                        <p> Press any key to continue. </p>
                    </div>
                    
,,html-keyboard-response,31,2.0.0,351095,vhq3djn0hj,693e609928541f4126f49c4b,693eec3f5d639ca880f70983,37,socialPredictionGame,,,,{"R":10,"P":5,"S":3,"T":8},3,8,10,5,SH,Blue,def,D.T.,pess_inv,coop,6,0,16718.20000000298,
,1057,html-keyboard-response,32,2.0.0,352153,vhq3djn0hj,693e609928541f4126f49c4b,693eec3f5d639ca880f70983,37,feedbackTrial, ,,,,,,,,,,,,,,,,,
                    <div style="text-align:center;">
                        <p style="color:red; font-size:24px;">Incorrect</p><p>You still have 5 points.</p>
                        <p> Press any key to continue. </p>
                    </div>
                    
,,html-keyboard-response,33,2.0.0,371390,vhq3djn0hj,693e609928541f4126f49c4b,693eec3f5d639ca880f70983,37,socialPredictionGame,,,,{"R":10,"P":5,"S":0,"T":8},0,8,10,5,SH,Blue,def,D.T.,pess_inv,coop,4,0,19235.70000000298,
,1074,html-keyboard-response,34,2.0.0,372465,vhq3djn0hj,693e609928541f4126f49c4b,693eec3f5d639ca880f70983,37,feedbackTrial, ,,,,,,,,,,,,,,,,,
                    <div style="text-align:center;">
                        <p style="color:red; font-size:24px;">Incorrect</p><p>You still have 5 points.</p>
                        <p> Press any key to continue. </p>
                    </div>
                    
,,html-keyboard-response,35,2.0.0,421821,vhq3djn0hj,693e609928541f4126f49c4b,693eec3f5d639ca880f70983,37,socialPredictionGame,,,,{"R":10,"P":5,"S":7,"T":8},7,8,10,5,HG,Blue,def,D.T.,pess_inv,def,2,1,49355.40000000596,
,1502,html-keyboard-response,36,2.0.0,423325,vhq3djn0hj,693e609928541f4126f49c4b,693eec3f5d639ca880f70983,37,feedbackTrial, ,,,,,,,,,,,,,,,,,
                    <div style="text-align:center;">
                        <p style="color:green; font-size:24px;">Correct!</p><p>You now have 6 points.</p>
                        <p> Press any key to continue. </p>
                    </div>
                    
,,html-keyboard-response,37,2.0.0,430889,vhq3djn0hj,693e609928541f4126f49c4b,693eec3f5d639ca880f70983,37,socialPredictionGame,,,,{"R":10,"P":5,"S":10,"T":15},10,15,10,5,SG,Blue,def,D.T.,pess_inv,def,6,1,7562.70000000298,
,1412,html-keyboard-response,38,2.0.0,432303,vhq3djn0hj,693e609928541f4126f49c4b,693eec3f5d639ca880f70983,37,feedbackTrial, ,,,,,,,,,,,,,,,,,
                    <div style="text-align:center;">
                        <p style="color:green; font-size:24px;">Correct!</p><p>You now have 7 points.</p>
                        <p> Press any key to continue. </p>
                    </div>
                    
,,html-keyboard-response,39,2.0.0,442480,vhq3djn0hj,693e609928541f4126f49c4b,693eec3f5d639ca880f70983,37,socialPredictionGame,,,,{"R":10,"P":5,"S":10,"T":12},10,12,10,5,SG,Blue,def,D.T.,pess_inv,def,5,1,10175.79999999702,
,1252,html-keyboard-response,40,2.0.0,443733,vhq3djn0hj,693e609928541f4126f49c4b,693eec3f5d639ca880f70983,37,feedbackTrial, ,,,,,,,,,,,,,,,,,
                    <div style="text-align:center;">
                        <p style="color:green; font-size:24px;">Correct!</p><p>You now have 8 points.</p>
                        <p> Press any key to continue. </p>
                    </div>
                    
,,html-keyboard-response,41,2.0.0,474387,vhq3djn0hj,693e609928541f4126f49c4b,693eec3f5d639ca880f70983,37,socialPredictionGame,,,,{"R":10,"P":5,"S":7,"T":15},7,15,10,5,SG,Blue,def,D.T.,pess_inv,def,6,1,30653.09999999404,
,1254,html-keyboard-response,42,2.0.0,475642,vhq3djn0hj,693e609928541f4126f49c4b,693eec3f5d639ca880f70983,37,feedbackTrial, ,,,,,,,,,,,,,,,,,
                    <div style="text-align:center;">
                        <p style="color:green; font-size:24px;">Correct!</p><p>You now have 9 points.</p>
                        <p> Press any key to continue. </p>
                    </div>
                    
,21551,survey-html-form,43,2.1.0,497195,vhq3djn0hj,693e609928541f4126f49c4b,693eec3f5d639ca880f70983,37,strategyPrediction,{"strategyPrediction":"Trying to have numbers equal or higher than opponent"},,,,,,,,,,,,,,,,,
[{"page_index":0,"viewing_time":3900}],3900,instructions,44,2.1.0,501097,vhq3djn0hj,693e609928541f4126f49c4b,693eec3f5d639ca880f70983,37,,,,,,,,,,,,,,,,,,,
,,html-keyboard-response,45,2.0.0,516438,vhq3djn0hj,693e609928541f4126f49c4b,693eec3f5d639ca880f70983,37,socialPredictionGame,,,,{"R":10,"P":5,"S":0,"T":12},0,12,10,5,PD,Purple,def,E.B.,opt_inv,coop,6,0,15340.5,
,1278,html-keyboard-response,46,2.0.0,517717,vhq3djn0hj,693e609928541f4126f49c4b,693eec3f5d639ca880f70983,37,feedbackTrial, ,,,,,,,,,,,,,,,,,
                    <div style="text-align:center;">
                        <p style="color:red; font-size:24px;">Incorrect</p><p>You still have 9 points.</p>
                        <p> Press any key to continue. </p>
                    </div>
                    
,,html-keyboard-response,47,2.0.0,528928,vhq3djn0hj,693e609928541f4126f49c4b,693eec3f5d639ca880f70983,37,socialPredictionGame,,,,{"R":10,"P":5,"S":0,"T":8},0,8,10,5,SH,Purple,def,E.B.,opt_inv,def,4,1,11209.60000000894,
,1288,html-keyboard-response,48,2.0.0,530217,vhq3djn0hj,693e609928541f4126f49c4b,693eec3f5d639ca880f70983,37,feedbackTrial, ,,,,,,,,,,,,,,,,,
                    <div style="text-align:center;">
                        <p style="color:green; font-size:24px;">Correct!</p><p>You now have 10 points.</p>
                        <p> Press any key to continue. </p>
                    </div>
                    
,,html-keyboard-response,49,2.0.0,546115,vhq3djn0hj,693e609928541f4126f49c4b,693eec3f5d639ca880f70983,37,socialPredictionGame,,,,{"R":10,"P":5,"S":7,"T":8},7,8,10,5,HG,Purple,def,E.B.,opt_inv,def,2,1,15896.79999999702,
,1121,html-keyboard-response,50,2.0.0,547238,vhq3djn0hj,693e609928541f4126f49c4b,693eec3f5d639ca880f70983,37,feedbackTrial, ,,,,,,,,,,,,,,,,,
                    <div style="text-align:center;">
                        <p style="color:green; font-size:24px;">Correct!</p><p>You now have 11 points.</p>
                        <p> Press any key to continue. </p>
                    </div>
                    
,,html-keyboard-response,51,2.0.0,554841,vhq3djn0hj,693e609928541f4126f49c4b,693eec3f5d639ca880f70983,37,socialPredictionGame,,,,{"R":10,"P":5,"S":3,"T":5},3,5,10,5,SH,Purple,def,E.B.,opt_inv,def,3,1,7601.600000008941,
,1858,html-keyboard-response,52,2.0.0,556701,vhq3djn0hj,693e609928541f4126f49c4b,693eec3f5d639ca880f70983,37,feedbackTrial, ,,,,,,,,,,,,,,,,,
                    <div style="text-align:center;">
                        <p style="color:green; font-size:24px;">Correct!</p><p>You now have 12 points.</p>
                        <p> Press any key to continue. </p>
                    </div>
                    
,,html-keyboard-response,53,2.0.0,564768,vhq3djn0hj,693e609928541f4126f49c4b,693eec3f5d639ca880f70983,37,socialPredictionGame,,,,{"R":10,"P":5,"S":7,"T":15},7,15,10,5,SG,Purple,def,E.B.,opt_inv,coop,6,0,8066,
,1182,html-keyboard-response,54,2.0.0,565952,vhq3djn0hj,693e609928541f4126f49c4b,693eec3f5d639ca880f70983,37,feedbackTrial, ,,,,,,,,,,,,,,,,,
                    <div style="text-align:center;">
                        <p style="color:red; font-size:24px;">Incorrect</p><p>You still have 12 points.</p>
                        <p> Press any key to continue. </p>
                    </div>
                    
,,html-keyboard-response,55,2.0.0,577760,vhq3djn0hj,693e609928541f4126f49c4b,693eec3f5d639ca880f70983,37,socialPredictionGame,,,,{"R":10,"P":5,"S":7,"T":12},7,12,10,5,SG,Purple,def,E.B.,opt_inv,coop,5,0,11806.40000000596,
,974,html-keyboard-response,56,2.0.0,578736,vhq3djn0hj,693e609928541f4126f49c4b,693eec3f5d639ca880f70983,37,feedbackTrial, ,,,,,,,,,,,,,,,,,
                    <div style="text-align:center;">
                        <p style="color:red; font-size:24px;">Incorrect</p><p>You still have 12 points.</p>
                        <p> Press any key to continue. </p>
                    </div>
                    
,,html-keyboard-response,57,2.0.0,597185,vhq3djn0hj,693e609928541f4126f49c4b,693eec3f5d639ca880f70983,37,socialPredictionGame,,,,{"R":10,"P":5,"S":3,"T":12},3,12,10,5,PD,Purple,def,E.B.,opt_inv,coop,6,0,18446.89999999106,
,1478,html-keyboard-response,58,2.0.0,598665,vhq3djn0hj,693e609928541f4126f49c4b,693eec3f5d639ca880f70983,37,feedbackTrial, ,,,,,,,,,,,,,,,,,
                    <div style="text-align:center;">
                        <p style="color:red; font-size:24px;">Incorrect</p><p>You still have 12 points.</p>
                        <p> Press any key to continue. </p>
                    </div>
                    
,,html-keyboard-response,59,2.0.0,607817,vhq3djn0hj,693e609928541f4126f49c4b,693eec3f5d639ca880f70983,37,socialPredictionGame,,,,{"R":10,"P":5,"S":10,"T":5},10,5,10,5,HG,Blue,coop,E.B.,opt_inv,def,6,0,9151.09999999404,
,1249,html-keyboard-response,60,2.0.0,609067,vhq3djn0hj,693e609928541f4126f49c4b,693eec3f5d639ca880f70983,37,feedbackTrial, ,,,,,,,,,,,,,,,,,
                    <div style="text-align:center;">
                        <p style="color:red; font-size:24px;">Incorrect</p><p>You still have 12 points.</p>
                        <p> Press any key to continue. </p>
                    </div>
                    
,,html-keyboard-response,61,2.0.0,620833,vhq3djn0hj,693e609928541f4126f49c4b,693eec3f5d639ca880f70983,37,socialPredictionGame,,,,{"R":10,"P":5,"S":3,"T":15},3,15,10,5,PD,Blue,coop,E.B.,opt_inv,coop,4,1,11765.20000000298,
,1235,html-keyboard-response,62,2.0.0,622070,vhq3djn0hj,693e609928541f4126f49c4b,693eec3f5d639ca880f70983,37,feedbackTrial, ,,,,,,,,,,,,,,,,,
                    <div style="text-align:center;">
                        <p style="color:green; font-size:24px;">Correct!</p><p>You now have 13 points.</p>
                        <p> Press any key to continue. </p>
                    </div>
                    
,,html-keyboard-response,63,2.0.0,636439,vhq3djn0hj,693e609928541f4126f49c4b,693eec3f5d639ca880f70983,37,socialPredictionGame,,,,{"R":10,"P":5,"S":3,"T":8},3,8,10,5,SH,Blue,coop,E.B.,opt_inv,def,5,0,14368.40000000596,
,1351,html-keyboard-response,64,2.0.0,637792,vhq3djn0hj,693e609928541f4126f49c4b,693eec3f5d639ca880f70983,37,feedbackTrial, ,,,,,,,,,,,,,,,,,
                    <div style="text-align:center;">
                        <p style="color:red; font-size:24px;">Incorrect</p><p>You still have 13 points.</p>
                        <p> Press any key to continue. </p>
                    </div>
                    
,,html-keyboard-response,65,2.0.0,652851,vhq3djn0hj,693e609928541f4126f49c4b,693eec3f5d639ca880f70983,37,socialPredictionGame,,,,{"R":10,"P":5,"S":0,"T":5},0,5,10,5,SH,Purple,def,E.B.,opt_inv,def,5,1,15058,
,1540,html-keyboard-response,66,2.0.0,654392,vhq3djn0hj,693e609928541f4126f49c4b,693eec3f5d639ca880f70983,37,feedbackTrial, ,,,,,,,,,,,,,,,,,
                    <div style="text-align:center;">
                        <p style="color:green; font-size:24px;">Correct!</p><p>You now have 14 points.</p>
                        <p> Press any key to continue. </p>
                    </div>
                    
,,html-keyboard-response,67,2.0.0,667113,vhq3djn0hj,693e609928541f4126f49c4b,693eec3f5d639ca880f70983,37,socialPredictionGame,,,,{"R":10,"P":5,"S":7,"T":5},7,5,10,5,HG,Blue,coop,E.B.,opt_inv,def,3,0,12719.89999999106,
,1458,html-keyboard-response,68,2.0.0,668573,vhq3djn0hj,693e609928541f4126f49c4b,693eec3f5d639ca880f70983,37,feedbackTrial, ,,,,,,,,,,,,,,,,,
                    <div style="text-align:center;">
                        <p style="color:red; font-size:24px;">Incorrect</p><p>You still have 14 points.</p>
                        <p> Press any key to continue. </p>
                    </div>
                    
,,html-keyboard-response,69,2.0.0,699937,vhq3djn0hj,693e609928541f4126f49c4b,693eec3f5d639ca880f70983,37,socialPredictionGame,,,,{"R":10,"P":5,"S":10,"T":15},10,15,10,5,SG,Purple,def,E.B.,opt_inv,coop,1,0,31363.69999998808,
,1742,html-keyboard-response,70,2.0.0,701681,vhq3djn0hj,693e609928541f4126f49c4b,693eec3f5d639ca880f70983,37,feedbackTrial, ,,,,,,,,,,,,,,,,,
                    <div style="text-align:center;">
                        <p style="color:red; font-size:24px;">Incorrect</p><p>You still have 14 points.</p>
                        <p> Press any key to continue. </p>
                    </div>
                    
,,html-keyboard-response,71,2.0.0,713493,vhq3djn0hj,693e609928541f4126f49c4b,693eec3f5d639ca880f70983,37,socialPredictionGame,,,,{"R":10,"P":5,"S":0,"T":15},0,15,10,5,PD,Purple,def,E.B.,opt_inv,coop,1,0,11810.79999999702,
,1210,html-keyboard-response,72,2.0.0,714704,vhq3djn0hj,693e609928541f4126f49c4b,693eec3f5d639ca880f70983,37,feedbackTrial, ,,,,,,,,,,,,,,,,,
                    <div style="text-align:center;">
                        <p style="color:red; font-size:24px;">Incorrect</p><p>You still have 14 points.</p>
                        <p> Press any key to continue. </p>
                    </div>
                    
,,html-keyboard-response,73,2.0.0,724689,vhq3djn0hj,693e609928541f4126f49c4b,693eec3f5d639ca880f70983,37,socialPredictionGame,,,,{"R":10,"P":5,"S":10,"T":12},10,12,10,5,SG,Blue,coop,E.B.,opt_inv,coop,3,1,9983.59999999404,
,1308,html-keyboard-response,74,2.0.0,725998,vhq3djn0hj,693e609928541f4126f49c4b,693eec3f5d639ca880f70983,37,feedbackTrial, ,,,,,,,,,,,,,,,,,
                    <div style="text-align:center;">
                        <p style="color:green; font-size:24px;">Correct!</p><p>You now have 15 points.</p>
                        <p> Press any key to continue. </p>
                    </div>
                    
,,html-keyboard-response,75,2.0.0,736429,vhq3djn0hj,693e609928541f4126f49c4b,693eec3f5d639ca880f70983,37,socialPredictionGame,,,,{"R":10,"P":5,"S":10,"T":8},10,8,10,5,HG,Blue,coop,E.B.,opt_inv,def,2,0,10429.70000000298,
,1266,html-keyboard-response,76,2.0.0,737696,vhq3djn0hj,693e609928541f4126f49c4b,693eec3f5d639ca880f70983,37,feedbackTrial, ,,,,,,,,,,,,,,,,,
                    <div style="text-align:center;">
                        <p style="color:red; font-size:24px;">Incorrect</p><p>You still have 15 points.</p>
                        <p> Press any key to continue. </p>
                    </div>
                    
,12683,survey-html-form,77,2.1.0,750381,vhq3djn0hj,693e609928541f4126f49c4b,693eec3f5d639ca880f70983,37,strategyPrediction,{"strategyPrediction":"Not sure about this one."},,,,,,,,,,,,,,,,,
[{"page_index":0,"viewing_time":2155}],2155,instructions,78,2.1.0,752537,vhq3djn0hj,693e609928541f4126f49c4b,693eec3f5d639ca880f70983,37,,,,,,,,,,,,,,,,,,,
,,html-keyboard-response,79,2.0.0,761453,vhq3djn0hj,693e609928541f4126f49c4b,693eec3f5d639ca880f70983,37,socialPredictionGame,,,,{"R":10,"P":5,"S":10,"T":5},10,5,10,5,HG,Purple,coop,F.A.,opt_nat,coop,2,1,8915.60000000894,
,1541,html-keyboard-response,80,2.0.0,762995,vhq3djn0hj,693e609928541f4126f49c4b,693eec3f5d639ca880f70983,37,feedbackTrial, ,,,,,,,,,,,,,,,,,
                    <div style="text-align:center;">
                        <p style="color:green; font-size:24px;">Correct!</p><p>You now have 16 points.</p>
                        <p> Press any key to continue. </p>
                    </div>
                    
,,html-keyboard-response,81,2.0.0,771051,vhq3djn0hj,693e609928541f4126f49c4b,693eec3f5d639ca880f70983,37,socialPredictionGame,,,,{"R":10,"P":5,"S":3,"T":12},3,12,10,5,PD,Green,def,F.A.,opt_nat,def,4,1,8055.29999999702,
,1453,html-keyboard-response,82,2.0.0,772506,vhq3djn0hj,693e609928541f4126f49c4b,693eec3f5d639ca880f70983,37,feedbackTrial, ,,,,,,,,,,,,,,,,,
                    <div style="text-align:center;">
                        <p style="color:green; font-size:24px;">Correct!</p><p>You now have 17 points.</p>
                        <p> Press any key to continue. </p>
                    </div>
                    
,,html-keyboard-response,83,2.0.0,779783,vhq3djn0hj,693e609928541f4126f49c4b,693eec3f5d639ca880f70983,37,socialPredictionGame,,,,{"R":10,"P":5,"S":0,"T":15},0,15,10,5,PD,Green,def,F.A.,opt_nat,def,5,1,7276.0999999940395,
,1229,html-keyboard-response,84,2.0.0,781013,vhq3djn0hj,693e609928541f4126f49c4b,693eec3f5d639ca880f70983,37,feedbackTrial, ,,,,,,,,,,,,,,,,,
                    <div style="text-align:center;">
                        <p style="color:green; font-size:24px;">Correct!</p><p>You now have 18 points.</p>
                        <p> Press any key to continue. </p>
                    </div>
                    
,,html-keyboard-response,85,2.0.0,789731,vhq3djn0hj,693e609928541f4126f49c4b,693eec3f5d639ca880f70983,37,socialPredictionGame,,,,{"R":10,"P":5,"S":7,"T":8},7,8,10,5,HG,Green,def,F.A.,opt_nat,coop,4,0,8716.5,
,1076,html-keyboard-response,86,2.0.0,790809,vhq3djn0hj,693e609928541f4126f49c4b,693eec3f5d639ca880f70983,37,feedbackTrial, ,,,,,,,,,,,,,,,,,
                    <div style="text-align:center;">
                        <p style="color:red; font-size:24px;">Incorrect</p><p>You still have 18 points.</p>
                        <p> Press any key to continue. </p>
                    </div>
                    
,,html-keyboard-response,87,2.0.0,797377,vhq3djn0hj,693e609928541f4126f49c4b,693eec3f5d639ca880f70983,37,socialPredictionGame,,,,{"R":10,"P":5,"S":3,"T":15},3,15,10,5,PD,Green,def,F.A.,opt_nat,def,5,1,6567.100000008941,
,1080,html-keyboard-response,88,2.0.0,798458,vhq3djn0hj,693e609928541f4126f49c4b,693eec3f5d639ca880f70983,37,feedbackTrial, ,,,,,,,,,,,,,,,,,
                    <div style="text-align:center;">
                        <p style="color:green; font-size:24px;">Correct!</p><p>You now have 19 points.</p>
                        <p> Press any key to continue. </p>
                    </div>
                    
,,html-keyboard-response,89,2.0.0,806631,vhq3djn0hj,693e609928541f4126f49c4b,693eec3f5d639ca880f70983,37,socialPredictionGame,,,,{"R":10,"P":5,"S":7,"T":5},7,5,10,5,HG,Purple,coop,F.A.,opt_nat,coop,6,1,8172,
,1299,html-keyboard-response,90,2.0.0,807931,vhq3djn0hj,693e609928541f4126f49c4b,693eec3f5d639ca880f70983,37,feedbackTrial, ,,,,,,,,,,,,,,,,,
                    <div style="text-align:center;">
                        <p style="color:green; font-size:24px;">Correct!</p><p>You now have 20 points.</p>
                        <p> Press any key to continue. </p>
                    </div>
                    
,,html-keyboard-response,91,2.0.0,816359,vhq3djn0hj,693e609928541f4126f49c4b,693eec3f5d639ca880f70983,37,socialPredictionGame,,,,{"R":10,"P":5,"S":0,"T":8},0,8,10,5,SH,Green,def,F.A.,opt_nat,coop,5,0,8426,
,1195,html-keyboard-response,92,2.0.0,817555,vhq3djn0hj,693e609928541f4126f49c4b,693eec3f5d639ca880f70983,37,feedbackTrial, ,,,,,,,,,,,,,,,,,
                    <div style="text-align:center;">
                        <p style="color:red; font-size:24px;">Incorrect</p><p>You still have 20 points.</p>
                        <p> Press any key to continue. </p>
                    </div>
                    
,,html-keyboard-response,93,2.0.0,825879,vhq3djn0hj,693e609928541f4126f49c4b,693eec3f5d639ca880f70983,37,socialPredictionGame,,,,{"R":10,"P":5,"S":0,"T":12},0,12,10,5,PD,Green,def,F.A.,opt_nat,def,5,1,8321.60000000894,
,1378,html-keyboard-response,94,2.0.0,827258,vhq3djn0hj,693e609928541f4126f49c4b,693eec3f5d639ca880f70983,37,feedbackTrial, ,,,,,,,,,,,,,,,,,
                    <div style="text-align:center;">
                        <p style="color:green; font-size:24px;">Correct!</p><p>You now have 21 points.</p>
                        <p> Press any key to continue. </p>
                    </div>
                    
,,html-keyboard-response,95,2.0.0,835261,vhq3djn0hj,693e609928541f4126f49c4b,693eec3f5d639ca880f70983,37,socialPredictionGame,,,,{"R":10,"P":5,"S":10,"T":8},10,8,10,5,HG,Purple,coop,F.A.,opt_nat,coop,5,1,8001.79999999702,
,1214,html-keyboard-response,96,2.0.0,836476,vhq3djn0hj,693e609928541f4126f49c4b,693eec3f5d639ca880f70983,37,feedbackTrial, ,,,,,,,,,,,,,,,,,
                    <div style="text-align:center;">
                        <p style="color:green; font-size:24px;">Correct!</p><p>You now have 22 points.</p>
                        <p> Press any key to continue. </p>
                    </div>
                    
,,html-keyboard-response,97,2.0.0,843827,vhq3djn0hj,693e609928541f4126f49c4b,693eec3f5d639ca880f70983,37,socialPredictionGame,,,,{"R":10,"P":5,"S":7,"T":15},7,15,10,5,SG,Green,def,F.A.,opt_nat,def,5,1,7349.29999999702,
,1250,html-keyboard-response,98,2.0.0,845078,vhq3djn0hj,693e609928541f4126f49c4b,693eec3f5d639ca880f70983,37,feedbackTrial, ,,,,,,,,,,,,,,,,,
                    <div style="text-align:center;">
                        <p style="color:green; font-size:24px;">Correct!</p><p>You now have 23 points.</p>
                        <p> Press any key to continue. </p>
                    </div>
                    
,,html-keyboard-response,99,2.0.0,855401,vhq3djn0hj,693e609928541f4126f49c4b,693eec3f5d639ca880f70983,37,socialPredictionGame,,,,{"R":10,"P":5,"S":3,"T":8},3,8,10,5,SH,Green,def,F.A.,opt_nat,coop,2,0,10321.5,
,1207,html-keyboard-response,100,2.0.0,856609,vhq3djn0hj,693e609928541f4126f49c4b,693eec3f5d639ca880f70983,37,feedbackTrial, ,,,,,,,,,,,,,,,,,
                    <div style="text-align:center;">
                        <p style="color:red; font-size:24px;">Incorrect</p><p>You still have 23 points.</p>
                        <p> Press any key to continue. </p>
                    </div>
                    
,,html-keyboard-response,101,2.0.0,862803,vhq3djn0hj,693e609928541f4126f49c4b,693eec3f5d639ca880f70983,37,socialPredictionGame,,,,{"R":10,"P":5,"S":7,"T":12},7,12,10,5,SG,Green,def,F.A.,opt_nat,def,4,1,6193.20000000298,
,1264,html-keyboard-response,102,2.0.0,864069,vhq3djn0hj,693e609928541f4126f49c4b,693eec3f5d639ca880f70983,37,feedbackTrial, ,,,,,,,,,,,,,,,,,
                    <div style="text-align:center;">
                        <p style="color:green; font-size:24px;">Correct!</p><p>You now have 24 points.</p>
                        <p> Press any key to continue. </p>
                    </div>
                    
,,html-keyboard-response,103,2.0.0,880487,vhq3djn0hj,693e609928541f4126f49c4b,693eec3f5d639ca880f70983,37,socialPredictionGame,,,,{"R":10,"P":5,"S":10,"T":12},10,12,10,5,SG,Green,def,F.A.,opt_nat,def,3,1,16417,
,1435,html-keyboard-response,104,2.0.0,881923,vhq3djn0hj,693e609928541f4126f49c4b,693eec3f5d639ca880f70983,37,feedbackTrial, ,,,,,,,,,,,,,,,,,
                    <div style="text-align:center;">
                        <p style="color:green; font-size:24px;">Correct!</p><p>You now have 25 points.</p>
                        <p> Press any key to continue. </p>
                    </div>
                    
,,html-keyboard-response,105,2.0.0,900615,vhq3djn0hj,693e609928541f4126f49c4b,693eec3f5d639ca880f70983,37,socialPredictionGame,,,,{"R":10,"P":5,"S":3,"T":5},3,5,10,5,SH,Green,def,F.A.,opt_nat,coop,1,0,18690.5,
,1413,html-keyboard-response,106,2.0.0,902029,vhq3djn0hj,693e609928541f4126f49c4b,693eec3f5d639ca880f70983,37,feedbackTrial, ,,,,,,,,,,,,,,,,,
                    <div style="text-align:center;">
                        <p style="color:red; font-size:24px;">Incorrect</p><p>You still have 25 points.</p>
                        <p> Press any key to continue. </p>
                    </div>
                    
,,html-keyboard-response,107,2.0.0,909065,vhq3djn0hj,693e609928541f4126f49c4b,693eec3f5d639ca880f70983,37,socialPredictionGame,,,,{"R":10,"P":5,"S":10,"T":15},10,15,10,5,SG,Green,def,F.A.,opt_nat,def,5,1,7034.600000008941,
,1381,html-keyboard-response,108,2.0.0,910447,vhq3djn0hj,693e609928541f4126f49c4b,693eec3f5d639ca880f70983,37,feedbackTrial, ,,,,,,,,,,,,,,,,,
                    <div style="text-align:center;">
                        <p style="color:green; font-size:24px;">Correct!</p><p>You now have 26 points.</p>
                        <p> Press any key to continue. </p>
                    </div>
                    
,,html-keyboard-response,109,2.0.0,922491,vhq3djn0hj,693e609928541f4126f49c4b,693eec3f5d639ca880f70983,37,socialPredictionGame,,,,{"R":10,"P":5,"S":0,"T":5},0,5,10,5,SH,Purple,coop,F.A.,opt_nat,coop,2,1,12042.10000000894,
,1204,html-keyboard-response,110,2.0.0,923697,vhq3djn0hj,693e609928541f4126f49c4b,693eec3f5d639ca880f70983,37,feedbackTrial, ,,,,,,,,,,,,,,,,,
                    <div style="text-align:center;">
                        <p style="color:green; font-size:24px;">Correct!</p><p>You now have 27 points.</p>
                        <p> Press any key to continue. </p>
                    </div>
                    
,13723,survey-html-form,111,2.1.0,937421,vhq3djn0hj,693e609928541f4126f49c4b,693eec3f5d639ca880f70983,37,strategyPrediction,{"strategyPrediction":"Always wanted 10 or above."},,,,,,,,,,,,,,,,,
[{"page_index":0,"viewing_time":3659}],3659,instructions,112,2.1.0,941082,vhq3djn0hj,693e609928541f4126f49c4b,693eec3f5d639ca880f70983,37,,,,,,,,,,,,,,,,,,,
,,html-keyboard-response,113,2.0.0,952457,vhq3djn0hj,693e609928541f4126f49c4b,693eec3f5d639ca880f70983,37,socialPredictionGame,,,,{"R":10,"P":5,"S":3,"T":15},3,15,10,5,PD,Purple,def,G.P.,pess_nat,def,5,1,11372.90000000596,
,1308,html-keyboard-response,114,2.0.0,953766,vhq3djn0hj,693e609928541f4126f49c4b,693eec3f5d639ca880f70983,37,feedbackTrial, ,,,,,,,,,,,,,,,,,
                    <div style="text-align:center;">
                        <p style="color:green; font-size:24px;">Correct!</p><p>You now have 28 points.</p>
                        <p> Press any key to continue. </p>
                    </div>
                    
,,html-keyboard-response,115,2.0.0,962217,vhq3djn0hj,693e609928541f4126f49c4b,693eec3f5d639ca880f70983,37,socialPredictionGame,,,,{"R":10,"P":5,"S":10,"T":12},10,12,10,5,SG,Purple,def,G.P.,pess_nat,coop,6,0,8449.10000000894,
,1401,html-keyboard-response,116,2.0.0,963619,vhq3djn0hj,693e609928541f4126f49c4b,693eec3f5d639ca880f70983,37,feedbackTrial, ,,,,,,,,,,,,,,,,,
                    <div style="text-align:center;">
                        <p style="color:red; font-size:24px;">Incorrect</p><p>You still have 28 points.</p>
                        <p> Press any key to continue. </p>
                    </div>
                    
,,html-keyboard-response,117,2.0.0,970888,vhq3djn0hj,693e609928541f4126f49c4b,693eec3f5d639ca880f70983,37,socialPredictionGame,,,,{"R":10,"P":5,"S":10,"T":8},10,8,10,5,HG,Red,coop,G.P.,pess_nat,coop,5,1,7267.9000000059605,
,1196,html-keyboard-response,118,2.0.0,972086,vhq3djn0hj,693e609928541f4126f49c4b,693eec3f5d639ca880f70983,37,feedbackTrial, ,,,,,,,,,,,,,,,,,
                    <div style="text-align:center;">
                        <p style="color:green; font-size:24px;">Correct!</p><p>You now have 29 points.</p>
                        <p> Press any key to continue. </p>
                    </div>
                    
,,html-keyboard-response,119,2.0.0,979462,vhq3djn0hj,693e609928541f4126f49c4b,693eec3f5d639ca880f70983,37,socialPredictionGame,,,,{"R":10,"P":5,"S":10,"T":5},10,5,10,5,HG,Red,coop,G.P.,pess_nat,coop,5,1,7373.9000000059605,
,1212,html-keyboard-response,120,2.0.0,980675,vhq3djn0hj,693e609928541f4126f49c4b,693eec3f5d639ca880f70983,37,feedbackTrial, ,,,,,,,,,,,,,,,,,
                    <div style="text-align:center;">
                        <p style="color:green; font-size:24px;">Correct!</p><p>You now have 30 points.</p>
                        <p> Press any key to continue. </p>
                    </div>
                    
,,html-keyboard-response,121,2.0.0,993603,vhq3djn0hj,693e609928541f4126f49c4b,693eec3f5d639ca880f70983,37,socialPredictionGame,,,,{"R":10,"P":5,"S":0,"T":5},0,5,10,5,SH,Purple,def,G.P.,pess_nat,def,1,1,12926.300000011921,
,1251,html-keyboard-response,122,2.0.0,994856,vhq3djn0hj,693e609928541f4126f49c4b,693eec3f5d639ca880f70983,37,feedbackTrial, ,,,,,,,,,,,,,,,,,
                    <div style="text-align:center;">
                        <p style="color:green; font-size:24px;">Correct!</p><p>You now have 31 points.</p>
                        <p> Press any key to continue. </p>
                    </div>
                    
,,html-keyboard-response,123,2.0.0,1003995,vhq3djn0hj,693e609928541f4126f49c4b,693eec3f5d639ca880f70983,37,socialPredictionGame,,,,{"R":10,"P":5,"S":7,"T":15},7,15,10,5,SG,Purple,def,G.P.,pess_nat,coop,5,0,9137.20000000298,
,1095,html-keyboard-response,124,2.0.0,1005091,vhq3djn0hj,693e609928541f4126f49c4b,693eec3f5d639ca880f70983,37,feedbackTrial, ,,,,,,,,,,,,,,,,,
                    <div style="text-align:center;">
                        <p style="color:red; font-size:24px;">Incorrect</p><p>You still have 31 points.</p>
                        <p> Press any key to continue. </p>
                    </div>
                    
,,html-keyboard-response,125,2.0.0,1015013,vhq3djn0hj,693e609928541f4126f49c4b,693eec3f5d639ca880f70983,37,socialPredictionGame,,,,{"R":10,"P":5,"S":0,"T":8},0,8,10,5,SH,Purple,def,G.P.,pess_nat,def,2,1,9920.40000000596,
,1571,html-keyboard-response,126,2.0.0,1016585,vhq3djn0hj,693e609928541f4126f49c4b,693eec3f5d639ca880f70983,37,feedbackTrial, ,,,,,,,,,,,,,,,,,
                    <div style="text-align:center;">
                        <p style="color:green; font-size:24px;">Correct!</p><p>You now have 32 points.</p>
                        <p> Press any key to continue. </p>
                    </div>
                    
,,html-keyboard-response,127,2.0.0,1026723,vhq3djn0hj,693e609928541f4126f49c4b,693eec3f5d639ca880f70983,37,socialPredictionGame,,,,{"R":10,"P":5,"S":7,"T":5},7,5,10,5,HG,Red,coop,G.P.,pess_nat,coop,2,1,10136.70000000298,
,1156,html-keyboard-response,128,2.0.0,1027879,vhq3djn0hj,693e609928541f4126f49c4b,693eec3f5d639ca880f70983,37,feedbackTrial, ,,,,,,,,,,,,,,,,,
                    <div style="text-align:center;">
                        <p style="color:green; font-size:24px;">Correct!</p><p>You now have 33 points.</p>
                        <p> Press any key to continue. </p>
                    </div>
                    
,,html-keyboard-response,129,2.0.0,1034167,vhq3djn0hj,693e609928541f4126f49c4b,693eec3f5d639ca880f70983,37,socialPredictionGame,,,,{"R":10,"P":5,"S":10,"T":15},10,15,10,5,SG,Purple,def,G.P.,pess_nat,coop,5,0,6286,
,1302,html-keyboard-response,130,2.0.0,1035469,vhq3djn0hj,693e609928541f4126f49c4b,693eec3f5d639ca880f70983,37,feedbackTrial, ,,,,,,,,,,,,,,,,,
                    <div style="text-align:center;">
                        <p style="color:red; font-size:24px;">Incorrect</p><p>You still have 33 points.</p>
                        <p> Press any key to continue. </p>
                    </div>
                    
,,html-keyboard-response,131,2.0.0,1043033,vhq3djn0hj,693e609928541f4126f49c4b,693eec3f5d639ca880f70983,37,socialPredictionGame,,,,{"R":10,"P":5,"S":0,"T":12},0,12,10,5,PD,Purple,def,G.P.,pess_nat,def,5,1,7561.899999991059,
,1282,html-keyboard-response,132,2.0.0,1044316,vhq3djn0hj,693e609928541f4126f49c4b,693eec3f5d639ca880f70983,37,feedbackTrial, ,,,,,,,,,,,,,,,,,
                    <div style="text-align:center;">
                        <p style="color:green; font-size:24px;">Correct!</p><p>You now have 34 points.</p>
                        <p> Press any key to continue. </p>
                    </div>
                    
,,html-keyboard-response,133,2.0.0,1059771,vhq3djn0hj,693e609928541f4126f49c4b,693eec3f5d639ca880f70983,37,socialPredictionGame,,,,{"R":10,"P":5,"S":3,"T":5},3,5,10,5,SH,Red,coop,G.P.,pess_nat,def,1,0,15453.29999999702,
,1232,html-keyboard-response,134,2.0.0,1061004,vhq3djn0hj,693e609928541f4126f49c4b,693eec3f5d639ca880f70983,37,feedbackTrial, ,,,,,,,,,,,,,,,,,
                    <div style="text-align:center;">
                        <p style="color:red; font-size:24px;">Incorrect</p><p>You still have 34 points.</p>
                        <p> Press any key to continue. </p>
                    </div>
                    
,,html-keyboard-response,135,2.0.0,1068549,vhq3djn0hj,693e609928541f4126f49c4b,693eec3f5d639ca880f70983,37,socialPredictionGame,,,,{"R":10,"P":5,"S":7,"T":8},7,8,10,5,HG,Purple,def,G.P.,pess_nat,coop,2,0,7543.29999999702,
,1093,html-keyboard-response,136,2.0.0,1069642,vhq3djn0hj,693e609928541f4126f49c4b,693eec3f5d639ca880f70983,37,feedbackTrial, ,,,,,,,,,,,,,,,,,
                    <div style="text-align:center;">
                        <p style="color:red; font-size:24px;">Incorrect</p><p>You still have 34 points.</p>
                        <p> Press any key to continue. </p>
                    </div>
                    
,,html-keyboard-response,137,2.0.0,1075517,vhq3djn0hj,693e609928541f4126f49c4b,693eec3f5d639ca880f70983,37,socialPredictionGame,,,,{"R":10,"P":5,"S":3,"T":12},3,12,10,5,PD,Purple,def,G.P.,pess_nat,def,5,1,5872.70000000298,
,1394,html-keyboard-response,138,2.0.0,1076912,vhq3djn0hj,693e609928541f4126f49c4b,693eec3f5d639ca880f70983,37,feedbackTrial, ,,,,,,,,,,,,,,,,,
                    <div style="text-align:center;">
                        <p style="color:green; font-size:24px;">Correct!</p><p>You now have 35 points.</p>
                        <p> Press any key to continue. </p>
                    </div>
                    
,,html-keyboard-response,139,2.0.0,1083085,vhq3djn0hj,693e609928541f4126f49c4b,693eec3f5d639ca880f70983,37,socialPredictionGame,,,,{"R":10,"P":5,"S":7,"T":12},7,12,10,5,SG,Purple,def,G.P.,pess_nat,coop,5,0,6171.5,
,1305,html-keyboard-response,140,2.0.0,1084391,vhq3djn0hj,693e609928541f4126f49c4b,693eec3f5d639ca880f70983,37,feedbackTrial, ,,,,,,,,,,,,,,,,,
                    <div style="text-align:center;">
                        <p style="color:red; font-size:24px;">Incorrect</p><p>You still have 35 points.</p>
                        <p> Press any key to continue. </p>
                    </div>
                    
,,html-keyboard-response,141,2.0.0,1103394,vhq3djn0hj,693e609928541f4126f49c4b,693eec3f5d639ca880f70983,37,socialPredictionGame,,,,{"R":10,"P":5,"S":3,"T":8},3,8,10,5,SH,Purple,def,G.P.,pess_nat,def,1,1,19001.29999999702,
,1474,html-keyboard-response,142,2.0.0,1104869,vhq3djn0hj,693e609928541f4126f49c4b,693eec3f5d639ca880f70983,37,feedbackTrial, ,,,,,,,,,,,,,,,,,
                    <div style="text-align:center;">
                        <p style="color:green; font-size:24px;">Correct!</p><p>You now have 36 points.</p>
                        <p> Press any key to continue. </p>
                    </div>
                    
,,html-keyboard-response,143,2.0.0,1110793,vhq3djn0hj,693e609928541f4126f49c4b,693eec3f5d639ca880f70983,37,socialPredictionGame,,,,{"R":10,"P":5,"S":0,"T":15},0,15,10,5,PD,Purple,def,G.P.,pess_nat,def,6,1,5923,
,1405,html-keyboard-response,144,2.0.0,1112200,vhq3djn0hj,693e609928541f4126f49c4b,693eec3f5d639ca880f70983,37,feedbackTrial, ,,,,,,,,,,,,,,,,,
                    <div style="text-align:center;">
                        <p style="color:green; font-size:24px;">Correct!</p><p>You now have 37 points.</p>
                        <p> Press any key to continue. </p>
                    </div>
                    
,13494,survey-html-form,145,2.1.0,1125695,vhq3djn0hj,693e609928541f4126f49c4b,693eec3f5d639ca880f70983,37,strategyPrediction,{"strategyPrediction":"Trying to get the highest numbers"},,,,,,,,,,,,,,,,,
,6415,survey-html-form,146,2.1.0,1132111,vhq3djn0hj,693e609928541f4126f49c4b,693eec3f5d639ca880f70983,37,demographics,{"age":"71","gender":"Female"},,,,,,,,,,,,,,,,,
,27720,survey-html-form,147,2.1.0,1159833,vhq3djn0hj,693e609928541f4126f49c4b,693eec3f5d639ca880f70983,37,technical,{"technical":"none","feedback":"The survey looked good as presented. Thank you for allowing me to participate."},,,,,,,,,,,,,,,,,
