view_history,rt,trial_type,trial_index,plugin_version,time_elapsed,subjectID,studyID,sessionID,overallBonusPoints,task,response,question_order,success,Matrix,S,T,R,P,GameType,choice,GivenAns,Player,PlayerType,CorrAns,confidence,ScoreNum,time_on_trial,stimulus
"[{""page_index"":0,""viewing_time"":5210},{""page_index"":1,""viewing_time"":128817}]",134028.0,instructions,0,2.1.0,134035,x921ptf2rz,693e609928541f4126f49c4b,693efce69f5d75d813903ac7,39,,,,,,,,,,,,,,,,,,,
"[{""page_index"":0,""viewing_time"":656589}]",656589.0,instructions,1,2.1.0,790625,x921ptf2rz,693e609928541f4126f49c4b,693efce69f5d75d813903ac7,39,,,,,,,,,,,,,,,,,,,
"[{""page_index"":0,""viewing_time"":1964}]",1964.0,instructions,2,2.1.0,792591,x921ptf2rz,693e609928541f4126f49c4b,693efce69f5d75d813903ac7,39,,,,,,,,,,,,,,,,,,,
,13447.0,survey-multi-choice,3,,806040,x921ptf2rz,693e609928541f4126f49c4b,693efce69f5d75d813903ac7,39,comprehensionCheck,"{""task"":""Choose the option the anonymized participant chose"",""incentive"":""Yes—they received bonuses based on their performance""}","[0,1]",,,,,,,,,,,,,,,,
,1760.0,fullscreen,4,2.1.0,808830,x921ptf2rz,693e609928541f4126f49c4b,693efce69f5d75d813903ac7,39,,,,True,,,,,,,,,,,,,,,
"[{""page_index"":0,""viewing_time"":4174}]",4174.0,instructions,5,2.1.0,813005,x921ptf2rz,693e609928541f4126f49c4b,693efce69f5d75d813903ac7,39,,,,,,,,,,,,,,,,,,,
,,html-keyboard-response,6,2.0.0,841647,x921ptf2rz,693e609928541f4126f49c4b,693efce69f5d75d813903ac7,39,playOwnGame,,,,"{""R"":10,""P"":5,""S"":10,""T"":12}",10.0,12.0,10.0,5.0,SG,Blue,def,,,,,,,
,,html-keyboard-response,7,2.0.0,844443,x921ptf2rz,693e609928541f4126f49c4b,693efce69f5d75d813903ac7,39,playOwnGame,,,,"{""R"":10,""P"":5,""S"":10,""T"":8}",10.0,8.0,10.0,5.0,HG,Red,coop,,,,,,,
,,html-keyboard-response,8,2.0.0,845809,x921ptf2rz,693e609928541f4126f49c4b,693efce69f5d75d813903ac7,39,playOwnGame,,,,"{""R"":10,""P"":5,""S"":0,""T"":5}",0.0,5.0,10.0,5.0,SH,Blue,def,,,,,,,
,,html-keyboard-response,9,2.0.0,846899,x921ptf2rz,693e609928541f4126f49c4b,693efce69f5d75d813903ac7,39,playOwnGame,,,,"{""R"":10,""P"":5,""S"":3,""T"":12}",3.0,12.0,10.0,5.0,PD,Blue,def,,,,,,,
"[{""page_index"":0,""viewing_time"":1182}]",1182.0,instructions,10,2.1.0,848083,x921ptf2rz,693e609928541f4126f49c4b,693efce69f5d75d813903ac7,39,,,,,,,,,,,,,,,,,,,
,,html-keyboard-response,11,2.0.0,852545,x921ptf2rz,693e609928541f4126f49c4b,693efce69f5d75d813903ac7,39,socialPredictionGame,,,,"{""R"":10,""P"":5,""S"":0,""T"":8}",0.0,8.0,10.0,5.0,SH,Blue,coop,D.T.,opt_nat,coop,7.0,1.0,4460.699999988079,
,2339.0,html-keyboard-response,12,2.0.0,854886,x921ptf2rz,693e609928541f4126f49c4b,693efce69f5d75d813903ac7,39,feedbackTrial, ,,,,,,,,,,,,,,,,,"
                    <div style=""text-align:center;"">
                        <p style=""color:green; font-size:24px;"">Correct!</p><p>You now have 1 points.</p>
                        <p> Press any key to continue. </p>
                    </div>
                    "
,,html-keyboard-response,13,2.0.0,858926,x921ptf2rz,693e609928541f4126f49c4b,693efce69f5d75d813903ac7,39,socialPredictionGame,,,,"{""R"":10,""P"":5,""S"":7,""T"":15}",7.0,15.0,10.0,5.0,SG,Green,def,D.T.,opt_nat,def,8.0,1.0,4038.800000011921,
,1164.0,html-keyboard-response,14,2.0.0,860091,x921ptf2rz,693e609928541f4126f49c4b,693efce69f5d75d813903ac7,39,feedbackTrial, ,,,,,,,,,,,,,,,,,"
                    <div style=""text-align:center;"">
                        <p style=""color:green; font-size:24px;"">Correct!</p><p>You now have 2 points.</p>
                        <p> Press any key to continue. </p>
                    </div>
                    "
,,html-keyboard-response,15,2.0.0,862993,x921ptf2rz,693e609928541f4126f49c4b,693efce69f5d75d813903ac7,39,socialPredictionGame,,,,"{""R"":10,""P"":5,""S"":3,""T"":8}",3.0,8.0,10.0,5.0,SH,Green,def,D.T.,opt_nat,coop,8.0,0.0,2900.699999988079,
,1303.0,html-keyboard-response,16,2.0.0,864297,x921ptf2rz,693e609928541f4126f49c4b,693efce69f5d75d813903ac7,39,feedbackTrial, ,,,,,,,,,,,,,,,,,"
                    <div style=""text-align:center;"">
                        <p style=""color:red; font-size:24px;"">Incorrect</p><p>You still have 2 points.</p>
                        <p> Press any key to continue. </p>
                    </div>
                    "
,,html-keyboard-response,17,2.0.0,867391,x921ptf2rz,693e609928541f4126f49c4b,693efce69f5d75d813903ac7,39,socialPredictionGame,,,,"{""R"":10,""P"":5,""S"":7,""T"":5}",7.0,5.0,10.0,5.0,HG,Blue,coop,D.T.,opt_nat,coop,7.0,1.0,3092.800000011921,
,1221.0,html-keyboard-response,18,2.0.0,868613,x921ptf2rz,693e609928541f4126f49c4b,693efce69f5d75d813903ac7,39,feedbackTrial, ,,,,,,,,,,,,,,,,,"
                    <div style=""text-align:center;"">
                        <p style=""color:green; font-size:24px;"">Correct!</p><p>You now have 3 points.</p>
                        <p> Press any key to continue. </p>
                    </div>
                    "
,,html-keyboard-response,19,2.0.0,871529,x921ptf2rz,693e609928541f4126f49c4b,693efce69f5d75d813903ac7,39,socialPredictionGame,,,,"{""R"":10,""P"":5,""S"":10,""T"":5}",10.0,5.0,10.0,5.0,HG,Blue,coop,D.T.,opt_nat,coop,7.0,1.0,2914.7000000476837,
,1099.0,html-keyboard-response,20,2.0.0,872629,x921ptf2rz,693e609928541f4126f49c4b,693efce69f5d75d813903ac7,39,feedbackTrial, ,,,,,,,,,,,,,,,,,"
                    <div style=""text-align:center;"">
                        <p style=""color:green; font-size:24px;"">Correct!</p><p>You now have 4 points.</p>
                        <p> Press any key to continue. </p>
                    </div>
                    "
,,html-keyboard-response,21,2.0.0,875185,x921ptf2rz,693e609928541f4126f49c4b,693efce69f5d75d813903ac7,39,socialPredictionGame,,,,"{""R"":10,""P"":5,""S"":10,""T"":15}",10.0,15.0,10.0,5.0,SG,Green,def,D.T.,opt_nat,def,8.0,1.0,2554.300000011921,
,1028.0,html-keyboard-response,22,2.0.0,876215,x921ptf2rz,693e609928541f4126f49c4b,693efce69f5d75d813903ac7,39,feedbackTrial, ,,,,,,,,,,,,,,,,,"
                    <div style=""text-align:center;"">
                        <p style=""color:green; font-size:24px;"">Correct!</p><p>You now have 5 points.</p>
                        <p> Press any key to continue. </p>
                    </div>
                    "
,,html-keyboard-response,23,2.0.0,879393,x921ptf2rz,693e609928541f4126f49c4b,693efce69f5d75d813903ac7,39,socialPredictionGame,,,,"{""R"":10,""P"":5,""S"":7,""T"":8}",7.0,8.0,10.0,5.0,HG,Blue,coop,D.T.,opt_nat,coop,6.0,1.0,3177.5,
,1047.0,html-keyboard-response,24,2.0.0,880441,x921ptf2rz,693e609928541f4126f49c4b,693efce69f5d75d813903ac7,39,feedbackTrial, ,,,,,,,,,,,,,,,,,"
                    <div style=""text-align:center;"">
                        <p style=""color:green; font-size:24px;"">Correct!</p><p>You now have 6 points.</p>
                        <p> Press any key to continue. </p>
                    </div>
                    "
,,html-keyboard-response,25,2.0.0,882419,x921ptf2rz,693e609928541f4126f49c4b,693efce69f5d75d813903ac7,39,socialPredictionGame,,,,"{""R"":10,""P"":5,""S"":3,""T"":12}",3.0,12.0,10.0,5.0,PD,Green,def,D.T.,opt_nat,def,8.0,1.0,1977.0,
,975.0,html-keyboard-response,26,2.0.0,883395,x921ptf2rz,693e609928541f4126f49c4b,693efce69f5d75d813903ac7,39,feedbackTrial, ,,,,,,,,,,,,,,,,,"
                    <div style=""text-align:center;"">
                        <p style=""color:green; font-size:24px;"">Correct!</p><p>You now have 7 points.</p>
                        <p> Press any key to continue. </p>
                    </div>
                    "
,,html-keyboard-response,27,2.0.0,885617,x921ptf2rz,693e609928541f4126f49c4b,693efce69f5d75d813903ac7,39,socialPredictionGame,,,,"{""R"":10,""P"":5,""S"":0,""T"":5}",0.0,5.0,10.0,5.0,SH,Green,def,D.T.,opt_nat,coop,8.0,0.0,2219.199999988079,
,873.0,html-keyboard-response,28,2.0.0,886490,x921ptf2rz,693e609928541f4126f49c4b,693efce69f5d75d813903ac7,39,feedbackTrial, ,,,,,,,,,,,,,,,,,"
                    <div style=""text-align:center;"">
                        <p style=""color:red; font-size:24px;"">Incorrect</p><p>You still have 7 points.</p>
                        <p> Press any key to continue. </p>
                    </div>
                    "
,,html-keyboard-response,29,2.0.0,888633,x921ptf2rz,693e609928541f4126f49c4b,693efce69f5d75d813903ac7,39,socialPredictionGame,,,,"{""R"":10,""P"":5,""S"":3,""T"":15}",3.0,15.0,10.0,5.0,PD,Green,def,D.T.,opt_nat,def,7.0,1.0,2141.300000011921,
,986.0,html-keyboard-response,30,2.0.0,889620,x921ptf2rz,693e609928541f4126f49c4b,693efce69f5d75d813903ac7,39,feedbackTrial, ,,,,,,,,,,,,,,,,,"
                    <div style=""text-align:center;"">
                        <p style=""color:green; font-size:24px;"">Correct!</p><p>You now have 8 points.</p>
                        <p> Press any key to continue. </p>
                    </div>
                    "
,,html-keyboard-response,31,2.0.0,892037,x921ptf2rz,693e609928541f4126f49c4b,693efce69f5d75d813903ac7,39,socialPredictionGame,,,,"{""R"":10,""P"":5,""S"":0,""T"":12}",0.0,12.0,10.0,5.0,PD,Blue,coop,D.T.,opt_nat,def,8.0,0.0,2416.199999988079,
,859.0,html-keyboard-response,32,2.0.0,892897,x921ptf2rz,693e609928541f4126f49c4b,693efce69f5d75d813903ac7,39,feedbackTrial, ,,,,,,,,,,,,,,,,,"
                    <div style=""text-align:center;"">
                        <p style=""color:red; font-size:24px;"">Incorrect</p><p>You still have 8 points.</p>
                        <p> Press any key to continue. </p>
                    </div>
                    "
,,html-keyboard-response,33,2.0.0,895179,x921ptf2rz,693e609928541f4126f49c4b,693efce69f5d75d813903ac7,39,socialPredictionGame,,,,"{""R"":10,""P"":5,""S"":3,""T"":5}",3.0,5.0,10.0,5.0,SH,Blue,coop,D.T.,opt_nat,coop,8.0,1.0,2279.7999999523163,
,718.0,html-keyboard-response,34,2.0.0,895898,x921ptf2rz,693e609928541f4126f49c4b,693efce69f5d75d813903ac7,39,feedbackTrial, ,,,,,,,,,,,,,,,,,"
                    <div style=""text-align:center;"">
                        <p style=""color:green; font-size:24px;"">Correct!</p><p>You now have 9 points.</p>
                        <p> Press any key to continue. </p>
                    </div>
                    "
,,html-keyboard-response,35,2.0.0,898078,x921ptf2rz,693e609928541f4126f49c4b,693efce69f5d75d813903ac7,39,socialPredictionGame,,,,"{""R"":10,""P"":5,""S"":7,""T"":12}",7.0,12.0,10.0,5.0,SG,Green,def,D.T.,opt_nat,def,8.0,1.0,2178.100000023842,
,925.0,html-keyboard-response,36,2.0.0,899003,x921ptf2rz,693e609928541f4126f49c4b,693efce69f5d75d813903ac7,39,feedbackTrial, ,,,,,,,,,,,,,,,,,"
                    <div style=""text-align:center;"">
                        <p style=""color:green; font-size:24px;"">Correct!</p><p>You now have 10 points.</p>
                        <p> Press any key to continue. </p>
                    </div>
                    "
,,html-keyboard-response,37,2.0.0,900967,x921ptf2rz,693e609928541f4126f49c4b,693efce69f5d75d813903ac7,39,socialPredictionGame,,,,"{""R"":10,""P"":5,""S"":0,""T"":15}",0.0,15.0,10.0,5.0,PD,Green,def,D.T.,opt_nat,def,7.0,1.0,1962.9000000357628,
,643.0,html-keyboard-response,38,2.0.0,901611,x921ptf2rz,693e609928541f4126f49c4b,693efce69f5d75d813903ac7,39,feedbackTrial, ,,,,,,,,,,,,,,,,,"
                    <div style=""text-align:center;"">
                        <p style=""color:green; font-size:24px;"">Correct!</p><p>You now have 11 points.</p>
                        <p> Press any key to continue. </p>
                    </div>
                    "
,,html-keyboard-response,39,2.0.0,904095,x921ptf2rz,693e609928541f4126f49c4b,693efce69f5d75d813903ac7,39,socialPredictionGame,,,,"{""R"":10,""P"":5,""S"":10,""T"":8}",10.0,8.0,10.0,5.0,HG,Blue,coop,D.T.,opt_nat,coop,8.0,1.0,2482.800000011921,
,858.0,html-keyboard-response,40,2.0.0,904954,x921ptf2rz,693e609928541f4126f49c4b,693efce69f5d75d813903ac7,39,feedbackTrial, ,,,,,,,,,,,,,,,,,"
                    <div style=""text-align:center;"">
                        <p style=""color:green; font-size:24px;"">Correct!</p><p>You now have 12 points.</p>
                        <p> Press any key to continue. </p>
                    </div>
                    "
,,html-keyboard-response,41,2.0.0,907349,x921ptf2rz,693e609928541f4126f49c4b,693efce69f5d75d813903ac7,39,socialPredictionGame,,,,"{""R"":10,""P"":5,""S"":10,""T"":12}",10.0,12.0,10.0,5.0,SG,Green,def,D.T.,opt_nat,def,8.0,1.0,2394.099999964237,
,977.0,html-keyboard-response,42,2.0.0,908327,x921ptf2rz,693e609928541f4126f49c4b,693efce69f5d75d813903ac7,39,feedbackTrial, ,,,,,,,,,,,,,,,,,"
                    <div style=""text-align:center;"">
                        <p style=""color:green; font-size:24px;"">Correct!</p><p>You now have 13 points.</p>
                        <p> Press any key to continue. </p>
                    </div>
                    "
,27423.0,survey-html-form,43,2.1.0,935752,x921ptf2rz,693e609928541f4126f49c4b,693efce69f5d75d813903ac7,39,strategyPrediction,"{""strategyPrediction"":""Maximize their possible outcome based on what they thought the other person would choose. ""}",,,,,,,,,,,,,,,,,
"[{""page_index"":0,""viewing_time"":2683}]",2683.0,instructions,44,2.1.0,938435,x921ptf2rz,693e609928541f4126f49c4b,693efce69f5d75d813903ac7,39,,,,,,,,,,,,,,,,,,,
,,html-keyboard-response,45,2.0.0,942051,x921ptf2rz,693e609928541f4126f49c4b,693efce69f5d75d813903ac7,39,socialPredictionGame,,,,"{""R"":10,""P"":5,""S"":10,""T"":15}",10.0,15.0,10.0,5.0,SG,Red,coop,G.P.,opt_inv,coop,8.0,1.0,3615.300000011921,
,1224.0,html-keyboard-response,46,2.0.0,943276,x921ptf2rz,693e609928541f4126f49c4b,693efce69f5d75d813903ac7,39,feedbackTrial, ,,,,,,,,,,,,,,,,,"
                    <div style=""text-align:center;"">
                        <p style=""color:green; font-size:24px;"">Correct!</p><p>You now have 14 points.</p>
                        <p> Press any key to continue. </p>
                    </div>
                    "
,,html-keyboard-response,47,2.0.0,945833,x921ptf2rz,693e609928541f4126f49c4b,693efce69f5d75d813903ac7,39,socialPredictionGame,,,,"{""R"":10,""P"":5,""S"":0,""T"":5}",0.0,5.0,10.0,5.0,SH,Purple,def,G.P.,opt_inv,def,7.0,1.0,2556.0,
,1005.0,html-keyboard-response,48,2.0.0,946839,x921ptf2rz,693e609928541f4126f49c4b,693efce69f5d75d813903ac7,39,feedbackTrial, ,,,,,,,,,,,,,,,,,"
                    <div style=""text-align:center;"">
                        <p style=""color:green; font-size:24px;"">Correct!</p><p>You now have 15 points.</p>
                        <p> Press any key to continue. </p>
                    </div>
                    "
,,html-keyboard-response,49,2.0.0,948589,x921ptf2rz,693e609928541f4126f49c4b,693efce69f5d75d813903ac7,39,socialPredictionGame,,,,"{""R"":10,""P"":5,""S"":3,""T"":5}",3.0,5.0,10.0,5.0,SH,Purple,def,G.P.,opt_inv,def,8.0,1.0,1748.699999988079,
,663.0,html-keyboard-response,50,2.0.0,949254,x921ptf2rz,693e609928541f4126f49c4b,693efce69f5d75d813903ac7,39,feedbackTrial, ,,,,,,,,,,,,,,,,,"
                    <div style=""text-align:center;"">
                        <p style=""color:green; font-size:24px;"">Correct!</p><p>You now have 16 points.</p>
                        <p> Press any key to continue. </p>
                    </div>
                    "
,,html-keyboard-response,51,2.0.0,951763,x921ptf2rz,693e609928541f4126f49c4b,693efce69f5d75d813903ac7,39,socialPredictionGame,,,,"{""R"":10,""P"":5,""S"":7,""T"":5}",7.0,5.0,10.0,5.0,HG,Red,coop,G.P.,opt_inv,def,8.0,0.0,2508.100000023842,
,1016.0,html-keyboard-response,52,2.0.0,952780,x921ptf2rz,693e609928541f4126f49c4b,693efce69f5d75d813903ac7,39,feedbackTrial, ,,,,,,,,,,,,,,,,,"
                    <div style=""text-align:center;"">
                        <p style=""color:red; font-size:24px;"">Incorrect</p><p>You still have 16 points.</p>
                        <p> Press any key to continue. </p>
                    </div>
                    "
,,html-keyboard-response,53,2.0.0,954969,x921ptf2rz,693e609928541f4126f49c4b,693efce69f5d75d813903ac7,39,socialPredictionGame,,,,"{""R"":10,""P"":5,""S"":10,""T"":12}",10.0,12.0,10.0,5.0,SG,Red,coop,G.P.,opt_inv,coop,8.0,1.0,2187.899999976158,
,911.0,html-keyboard-response,54,2.0.0,955881,x921ptf2rz,693e609928541f4126f49c4b,693efce69f5d75d813903ac7,39,feedbackTrial, ,,,,,,,,,,,,,,,,,"
                    <div style=""text-align:center;"">
                        <p style=""color:green; font-size:24px;"">Correct!</p><p>You now have 17 points.</p>
                        <p> Press any key to continue. </p>
                    </div>
                    "
,,html-keyboard-response,55,2.0.0,958395,x921ptf2rz,693e609928541f4126f49c4b,693efce69f5d75d813903ac7,39,socialPredictionGame,,,,"{""R"":10,""P"":5,""S"":0,""T"":15}",0.0,15.0,10.0,5.0,PD,Purple,def,G.P.,opt_inv,coop,8.0,0.0,2512.600000023842,
,715.0,html-keyboard-response,56,2.0.0,959111,x921ptf2rz,693e609928541f4126f49c4b,693efce69f5d75d813903ac7,39,feedbackTrial, ,,,,,,,,,,,,,,,,,"
                    <div style=""text-align:center;"">
                        <p style=""color:red; font-size:24px;"">Incorrect</p><p>You still have 17 points.</p>
                        <p> Press any key to continue. </p>
                    </div>
                    "
,,html-keyboard-response,57,2.0.0,961143,x921ptf2rz,693e609928541f4126f49c4b,693efce69f5d75d813903ac7,39,socialPredictionGame,,,,"{""R"":10,""P"":5,""S"":7,""T"":12}",7.0,12.0,10.0,5.0,SG,Purple,def,G.P.,opt_inv,coop,8.0,0.0,2030.4000000357628,
,862.0,html-keyboard-response,58,2.0.0,962006,x921ptf2rz,693e609928541f4126f49c4b,693efce69f5d75d813903ac7,39,feedbackTrial, ,,,,,,,,,,,,,,,,,"
                    <div style=""text-align:center;"">
                        <p style=""color:red; font-size:24px;"">Incorrect</p><p>You still have 17 points.</p>
                        <p> Press any key to continue. </p>
                    </div>
                    "
,,html-keyboard-response,59,2.0.0,963923,x921ptf2rz,693e609928541f4126f49c4b,693efce69f5d75d813903ac7,39,socialPredictionGame,,,,"{""R"":10,""P"":5,""S"":7,""T"":15}",7.0,15.0,10.0,5.0,SG,Purple,def,G.P.,opt_inv,coop,8.0,0.0,1915.7000000476835,
,838.0,html-keyboard-response,60,2.0.0,964762,x921ptf2rz,693e609928541f4126f49c4b,693efce69f5d75d813903ac7,39,feedbackTrial, ,,,,,,,,,,,,,,,,,"
                    <div style=""text-align:center;"">
                        <p style=""color:red; font-size:24px;"">Incorrect</p><p>You still have 17 points.</p>
                        <p> Press any key to continue. </p>
                    </div>
                    "
,,html-keyboard-response,61,2.0.0,967499,x921ptf2rz,693e609928541f4126f49c4b,693efce69f5d75d813903ac7,39,socialPredictionGame,,,,"{""R"":10,""P"":5,""S"":3,""T"":8}",3.0,8.0,10.0,5.0,SH,Purple,def,G.P.,opt_inv,def,8.0,1.0,2735.7000000476837,
,730.0,html-keyboard-response,62,2.0.0,968230,x921ptf2rz,693e609928541f4126f49c4b,693efce69f5d75d813903ac7,39,feedbackTrial, ,,,,,,,,,,,,,,,,,"
                    <div style=""text-align:center;"">
                        <p style=""color:green; font-size:24px;"">Correct!</p><p>You now have 18 points.</p>
                        <p> Press any key to continue. </p>
                    </div>
                    "
,,html-keyboard-response,63,2.0.0,970887,x921ptf2rz,693e609928541f4126f49c4b,693efce69f5d75d813903ac7,39,socialPredictionGame,,,,"{""R"":10,""P"":5,""S"":7,""T"":8}",7.0,8.0,10.0,5.0,HG,Red,coop,G.P.,opt_inv,def,8.0,0.0,2655.699999988079,
,1042.0,html-keyboard-response,64,2.0.0,971930,x921ptf2rz,693e609928541f4126f49c4b,693efce69f5d75d813903ac7,39,feedbackTrial, ,,,,,,,,,,,,,,,,,"
                    <div style=""text-align:center;"">
                        <p style=""color:red; font-size:24px;"">Incorrect</p><p>You still have 18 points.</p>
                        <p> Press any key to continue. </p>
                    </div>
                    "
,,html-keyboard-response,65,2.0.0,974645,x921ptf2rz,693e609928541f4126f49c4b,693efce69f5d75d813903ac7,39,socialPredictionGame,,,,"{""R"":10,""P"":5,""S"":3,""T"":15}",3.0,15.0,10.0,5.0,PD,Red,coop,G.P.,opt_inv,coop,7.0,1.0,2712.699999988079,
,734.0,html-keyboard-response,66,2.0.0,975380,x921ptf2rz,693e609928541f4126f49c4b,693efce69f5d75d813903ac7,39,feedbackTrial, ,,,,,,,,,,,,,,,,,"
                    <div style=""text-align:center;"">
                        <p style=""color:green; font-size:24px;"">Correct!</p><p>You now have 19 points.</p>
                        <p> Press any key to continue. </p>
                    </div>
                    "
,,html-keyboard-response,67,2.0.0,977699,x921ptf2rz,693e609928541f4126f49c4b,693efce69f5d75d813903ac7,39,socialPredictionGame,,,,"{""R"":10,""P"":5,""S"":10,""T"":5}",10.0,5.0,10.0,5.0,HG,Purple,def,G.P.,opt_inv,def,7.0,1.0,2318.399999976158,
,677.0,html-keyboard-response,68,2.0.0,978378,x921ptf2rz,693e609928541f4126f49c4b,693efce69f5d75d813903ac7,39,feedbackTrial, ,,,,,,,,,,,,,,,,,"
                    <div style=""text-align:center;"">
                        <p style=""color:green; font-size:24px;"">Correct!</p><p>You now have 20 points.</p>
                        <p> Press any key to continue. </p>
                    </div>
                    "
,,html-keyboard-response,69,2.0.0,981151,x921ptf2rz,693e609928541f4126f49c4b,693efce69f5d75d813903ac7,39,socialPredictionGame,,,,"{""R"":10,""P"":5,""S"":0,""T"":12}",0.0,12.0,10.0,5.0,PD,Purple,def,G.P.,opt_inv,coop,8.0,0.0,2772.0,
,804.0,html-keyboard-response,70,2.0.0,981956,x921ptf2rz,693e609928541f4126f49c4b,693efce69f5d75d813903ac7,39,feedbackTrial, ,,,,,,,,,,,,,,,,,"
                    <div style=""text-align:center;"">
                        <p style=""color:red; font-size:24px;"">Incorrect</p><p>You still have 20 points.</p>
                        <p> Press any key to continue. </p>
                    </div>
                    "
,,html-keyboard-response,71,2.0.0,983946,x921ptf2rz,693e609928541f4126f49c4b,693efce69f5d75d813903ac7,39,socialPredictionGame,,,,"{""R"":10,""P"":5,""S"":10,""T"":8}",10.0,8.0,10.0,5.0,HG,Purple,def,G.P.,opt_inv,def,8.0,1.0,1988.4000000357628,
,862.0,html-keyboard-response,72,2.0.0,984809,x921ptf2rz,693e609928541f4126f49c4b,693efce69f5d75d813903ac7,39,feedbackTrial, ,,,,,,,,,,,,,,,,,"
                    <div style=""text-align:center;"">
                        <p style=""color:green; font-size:24px;"">Correct!</p><p>You now have 21 points.</p>
                        <p> Press any key to continue. </p>
                    </div>
                    "
,,html-keyboard-response,73,2.0.0,986812,x921ptf2rz,693e609928541f4126f49c4b,693efce69f5d75d813903ac7,39,socialPredictionGame,,,,"{""R"":10,""P"":5,""S"":0,""T"":8}",0.0,8.0,10.0,5.0,SH,Red,coop,G.P.,opt_inv,def,8.0,0.0,2001.199999988079,
,663.0,html-keyboard-response,74,2.0.0,987476,x921ptf2rz,693e609928541f4126f49c4b,693efce69f5d75d813903ac7,39,feedbackTrial, ,,,,,,,,,,,,,,,,,"
                    <div style=""text-align:center;"">
                        <p style=""color:red; font-size:24px;"">Incorrect</p><p>You still have 21 points.</p>
                        <p> Press any key to continue. </p>
                    </div>
                    "
,,html-keyboard-response,75,2.0.0,989599,x921ptf2rz,693e609928541f4126f49c4b,693efce69f5d75d813903ac7,39,socialPredictionGame,,,,"{""R"":10,""P"":5,""S"":3,""T"":12}",3.0,12.0,10.0,5.0,PD,Red,coop,G.P.,opt_inv,coop,8.0,1.0,2121.699999988079,
,674.0,html-keyboard-response,76,2.0.0,990274,x921ptf2rz,693e609928541f4126f49c4b,693efce69f5d75d813903ac7,39,feedbackTrial, ,,,,,,,,,,,,,,,,,"
                    <div style=""text-align:center;"">
                        <p style=""color:green; font-size:24px;"">Correct!</p><p>You now have 22 points.</p>
                        <p> Press any key to continue. </p>
                    </div>
                    "
,28547.0,survey-html-form,77,2.1.0,1018822,x921ptf2rz,693e609928541f4126f49c4b,693efce69f5d75d813903ac7,39,strategyPrediction,"{""strategyPrediction"":""They had a similar strategy to maximize their output but it was a bit harder to follow. ""}",,,,,,,,,,,,,,,,,
"[{""page_index"":0,""viewing_time"":1720}]",1721.0,instructions,78,2.1.0,1020543,x921ptf2rz,693e609928541f4126f49c4b,693efce69f5d75d813903ac7,39,,,,,,,,,,,,,,,,,,,
,,html-keyboard-response,79,2.0.0,1023441,x921ptf2rz,693e609928541f4126f49c4b,693efce69f5d75d813903ac7,39,socialPredictionGame,,,,"{""R"":10,""P"":5,""S"":7,""T"":8}",7.0,8.0,10.0,5.0,HG,Blue,def,F.A.,pess_nat,coop,8.0,0.0,2897.100000023842,
,1741.0,html-keyboard-response,80,2.0.0,1025183,x921ptf2rz,693e609928541f4126f49c4b,693efce69f5d75d813903ac7,39,feedbackTrial, ,,,,,,,,,,,,,,,,,"
                    <div style=""text-align:center;"">
                        <p style=""color:red; font-size:24px;"">Incorrect</p><p>You still have 22 points.</p>
                        <p> Press any key to continue. </p>
                    </div>
                    "
,,html-keyboard-response,81,2.0.0,1035025,x921ptf2rz,693e609928541f4126f49c4b,693efce69f5d75d813903ac7,39,socialPredictionGame,,,,"{""R"":10,""P"":5,""S"":0,""T"":5}",0.0,5.0,10.0,5.0,SH,Red,coop,F.A.,pess_nat,def,6.0,0.0,9840.100000023842,
,1059.0,html-keyboard-response,82,2.0.0,1036085,x921ptf2rz,693e609928541f4126f49c4b,693efce69f5d75d813903ac7,39,feedbackTrial, ,,,,,,,,,,,,,,,,,"
                    <div style=""text-align:center;"">
                        <p style=""color:red; font-size:24px;"">Incorrect</p><p>You still have 22 points.</p>
                        <p> Press any key to continue. </p>
                    </div>
                    "
,,html-keyboard-response,83,2.0.0,1038193,x921ptf2rz,693e609928541f4126f49c4b,693efce69f5d75d813903ac7,39,socialPredictionGame,,,,"{""R"":10,""P"":5,""S"":7,""T"":5}",7.0,5.0,10.0,5.0,HG,Blue,def,F.A.,pess_nat,coop,7.0,0.0,2107.600000023842,
,937.0,html-keyboard-response,84,2.0.0,1039132,x921ptf2rz,693e609928541f4126f49c4b,693efce69f5d75d813903ac7,39,feedbackTrial, ,,,,,,,,,,,,,,,,,"
                    <div style=""text-align:center;"">
                        <p style=""color:red; font-size:24px;"">Incorrect</p><p>You still have 22 points.</p>
                        <p> Press any key to continue. </p>
                    </div>
                    "
,,html-keyboard-response,85,2.0.0,1040948,x921ptf2rz,693e609928541f4126f49c4b,693efce69f5d75d813903ac7,39,socialPredictionGame,,,,"{""R"":10,""P"":5,""S"":3,""T"":12}",3.0,12.0,10.0,5.0,PD,Blue,def,F.A.,pess_nat,def,8.0,1.0,1815.399999976158,
,889.0,html-keyboard-response,86,2.0.0,1041838,x921ptf2rz,693e609928541f4126f49c4b,693efce69f5d75d813903ac7,39,feedbackTrial, ,,,,,,,,,,,,,,,,,"
                    <div style=""text-align:center;"">
                        <p style=""color:green; font-size:24px;"">Correct!</p><p>You now have 23 points.</p>
                        <p> Press any key to continue. </p>
                    </div>
                    "
,,html-keyboard-response,87,2.0.0,1050835,x921ptf2rz,693e609928541f4126f49c4b,693efce69f5d75d813903ac7,39,socialPredictionGame,,,,"{""R"":10,""P"":5,""S"":3,""T"":8}",3.0,8.0,10.0,5.0,SH,Red,coop,F.A.,pess_nat,def,9.0,0.0,8996.100000023842,
,942.0,html-keyboard-response,88,2.0.0,1051778,x921ptf2rz,693e609928541f4126f49c4b,693efce69f5d75d813903ac7,39,feedbackTrial, ,,,,,,,,,,,,,,,,,"
                    <div style=""text-align:center;"">
                        <p style=""color:red; font-size:24px;"">Incorrect</p><p>You still have 23 points.</p>
                        <p> Press any key to continue. </p>
                    </div>
                    "
,,html-keyboard-response,89,2.0.0,1055035,x921ptf2rz,693e609928541f4126f49c4b,693efce69f5d75d813903ac7,39,socialPredictionGame,,,,"{""R"":10,""P"":5,""S"":0,""T"":15}",0.0,15.0,10.0,5.0,PD,Blue,def,F.A.,pess_nat,def,8.0,1.0,3255.800000011921,
,846.0,html-keyboard-response,90,2.0.0,1055881,x921ptf2rz,693e609928541f4126f49c4b,693efce69f5d75d813903ac7,39,feedbackTrial, ,,,,,,,,,,,,,,,,,"
                    <div style=""text-align:center;"">
                        <p style=""color:green; font-size:24px;"">Correct!</p><p>You now have 24 points.</p>
                        <p> Press any key to continue. </p>
                    </div>
                    "
,,html-keyboard-response,91,2.0.0,1059331,x921ptf2rz,693e609928541f4126f49c4b,693efce69f5d75d813903ac7,39,socialPredictionGame,,,,"{""R"":10,""P"":5,""S"":3,""T"":5}",3.0,5.0,10.0,5.0,SH,Red,coop,F.A.,pess_nat,def,5.0,0.0,3449.100000023842,
,800.0,html-keyboard-response,92,2.0.0,1060132,x921ptf2rz,693e609928541f4126f49c4b,693efce69f5d75d813903ac7,39,feedbackTrial, ,,,,,,,,,,,,,,,,,"
                    <div style=""text-align:center;"">
                        <p style=""color:red; font-size:24px;"">Incorrect</p><p>You still have 24 points.</p>
                        <p> Press any key to continue. </p>
                    </div>
                    "
,,html-keyboard-response,93,2.0.0,1063201,x921ptf2rz,693e609928541f4126f49c4b,693efce69f5d75d813903ac7,39,socialPredictionGame,,,,"{""R"":10,""P"":5,""S"":0,""T"":12}",0.0,12.0,10.0,5.0,PD,Blue,def,F.A.,pess_nat,def,8.0,1.0,3067.0,
,798.0,html-keyboard-response,94,2.0.0,1064000,x921ptf2rz,693e609928541f4126f49c4b,693efce69f5d75d813903ac7,39,feedbackTrial, ,,,,,,,,,,,,,,,,,"
                    <div style=""text-align:center;"">
                        <p style=""color:green; font-size:24px;"">Correct!</p><p>You now have 25 points.</p>
                        <p> Press any key to continue. </p>
                    </div>
                    "
,,html-keyboard-response,95,2.0.0,1067369,x921ptf2rz,693e609928541f4126f49c4b,693efce69f5d75d813903ac7,39,socialPredictionGame,,,,"{""R"":10,""P"":5,""S"":10,""T"":12}",10.0,12.0,10.0,5.0,SG,Red,coop,F.A.,pess_nat,coop,7.0,1.0,3368.2000000476837,
,509.0,html-keyboard-response,96,2.0.0,1067879,x921ptf2rz,693e609928541f4126f49c4b,693efce69f5d75d813903ac7,39,feedbackTrial, ,,,,,,,,,,,,,,,,,"
                    <div style=""text-align:center;"">
                        <p style=""color:green; font-size:24px;"">Correct!</p><p>You now have 26 points.</p>
                        <p> Press any key to continue. </p>
                    </div>
                    "
,,html-keyboard-response,97,2.0.0,1070964,x921ptf2rz,693e609928541f4126f49c4b,693efce69f5d75d813903ac7,39,socialPredictionGame,,,,"{""R"":10,""P"":5,""S"":0,""T"":8}",0.0,8.0,10.0,5.0,SH,Blue,def,F.A.,pess_nat,def,8.0,1.0,3083.0,
,796.0,html-keyboard-response,98,2.0.0,1071760,x921ptf2rz,693e609928541f4126f49c4b,693efce69f5d75d813903ac7,39,feedbackTrial, ,,,,,,,,,,,,,,,,,"
                    <div style=""text-align:center;"">
                        <p style=""color:green; font-size:24px;"">Correct!</p><p>You now have 27 points.</p>
                        <p> Press any key to continue. </p>
                    </div>
                    "
,,html-keyboard-response,99,2.0.0,1076861,x921ptf2rz,693e609928541f4126f49c4b,693efce69f5d75d813903ac7,39,socialPredictionGame,,,,"{""R"":10,""P"":5,""S"":7,""T"":12}",7.0,12.0,10.0,5.0,SG,Red,coop,F.A.,pess_nat,coop,5.0,1.0,5099.199999988079,
,888.0,html-keyboard-response,100,2.0.0,1077750,x921ptf2rz,693e609928541f4126f49c4b,693efce69f5d75d813903ac7,39,feedbackTrial, ,,,,,,,,,,,,,,,,,"
                    <div style=""text-align:center;"">
                        <p style=""color:green; font-size:24px;"">Correct!</p><p>You now have 28 points.</p>
                        <p> Press any key to continue. </p>
                    </div>
                    "
,,html-keyboard-response,101,2.0.0,1081401,x921ptf2rz,693e609928541f4126f49c4b,693efce69f5d75d813903ac7,39,socialPredictionGame,,,,"{""R"":10,""P"":5,""S"":3,""T"":15}",3.0,15.0,10.0,5.0,PD,Blue,def,F.A.,pess_nat,def,8.0,1.0,3649.800000011921,
,947.0,html-keyboard-response,102,2.0.0,1082349,x921ptf2rz,693e609928541f4126f49c4b,693efce69f5d75d813903ac7,39,feedbackTrial, ,,,,,,,,,,,,,,,,,"
                    <div style=""text-align:center;"">
                        <p style=""color:green; font-size:24px;"">Correct!</p><p>You now have 29 points.</p>
                        <p> Press any key to continue. </p>
                    </div>
                    "
,,html-keyboard-response,103,2.0.0,1085197,x921ptf2rz,693e609928541f4126f49c4b,693efce69f5d75d813903ac7,39,socialPredictionGame,,,,"{""R"":10,""P"":5,""S"":10,""T"":5}",10.0,5.0,10.0,5.0,HG,Red,coop,F.A.,pess_nat,coop,7.0,1.0,2846.899999976158,
,848.0,html-keyboard-response,104,2.0.0,1086046,x921ptf2rz,693e609928541f4126f49c4b,693efce69f5d75d813903ac7,39,feedbackTrial, ,,,,,,,,,,,,,,,,,"
                    <div style=""text-align:center;"">
                        <p style=""color:green; font-size:24px;"">Correct!</p><p>You now have 30 points.</p>
                        <p> Press any key to continue. </p>
                    </div>
                    "
,,html-keyboard-response,105,2.0.0,1090070,x921ptf2rz,693e609928541f4126f49c4b,693efce69f5d75d813903ac7,39,socialPredictionGame,,,,"{""R"":10,""P"":5,""S"":10,""T"":8}",10.0,8.0,10.0,5.0,HG,Red,coop,F.A.,pess_nat,coop,8.0,1.0,4022.699999988079,
,863.0,html-keyboard-response,106,2.0.0,1090934,x921ptf2rz,693e609928541f4126f49c4b,693efce69f5d75d813903ac7,39,feedbackTrial, ,,,,,,,,,,,,,,,,,"
                    <div style=""text-align:center;"">
                        <p style=""color:green; font-size:24px;"">Correct!</p><p>You now have 31 points.</p>
                        <p> Press any key to continue. </p>
                    </div>
                    "
,,html-keyboard-response,107,2.0.0,1094065,x921ptf2rz,693e609928541f4126f49c4b,693efce69f5d75d813903ac7,39,socialPredictionGame,,,,"{""R"":10,""P"":5,""S"":10,""T"":15}",10.0,15.0,10.0,5.0,SG,Red,coop,F.A.,pess_nat,coop,8.0,1.0,3129.800000011921,
,865.0,html-keyboard-response,108,2.0.0,1094931,x921ptf2rz,693e609928541f4126f49c4b,693efce69f5d75d813903ac7,39,feedbackTrial, ,,,,,,,,,,,,,,,,,"
                    <div style=""text-align:center;"">
                        <p style=""color:green; font-size:24px;"">Correct!</p><p>You now have 32 points.</p>
                        <p> Press any key to continue. </p>
                    </div>
                    "
,,html-keyboard-response,109,2.0.0,1097911,x921ptf2rz,693e609928541f4126f49c4b,693efce69f5d75d813903ac7,39,socialPredictionGame,,,,"{""R"":10,""P"":5,""S"":7,""T"":15}",7.0,15.0,10.0,5.0,SG,Blue,def,F.A.,pess_nat,coop,7.0,0.0,2977.699999988079,
,953.0,html-keyboard-response,110,2.0.0,1098865,x921ptf2rz,693e609928541f4126f49c4b,693efce69f5d75d813903ac7,39,feedbackTrial, ,,,,,,,,,,,,,,,,,"
                    <div style=""text-align:center;"">
                        <p style=""color:red; font-size:24px;"">Incorrect</p><p>You still have 32 points.</p>
                        <p> Press any key to continue. </p>
                    </div>
                    "
,14385.0,survey-html-form,111,2.1.0,1113251,x921ptf2rz,693e609928541f4126f49c4b,693efce69f5d75d813903ac7,39,strategyPrediction,"{""strategyPrediction"":""Highest minimum payout for most selections.""}",,,,,,,,,,,,,,,,,
"[{""page_index"":0,""viewing_time"":1097}]",1097.0,instructions,112,2.1.0,1114350,x921ptf2rz,693e609928541f4126f49c4b,693efce69f5d75d813903ac7,39,,,,,,,,,,,,,,,,,,,
,,html-keyboard-response,113,2.0.0,1118327,x921ptf2rz,693e609928541f4126f49c4b,693efce69f5d75d813903ac7,39,socialPredictionGame,,,,"{""R"":10,""P"":5,""S"":7,""T"":5}",7.0,5.0,10.0,5.0,HG,Blue,coop,E.B.,pess_inv,def,9.0,0.0,3976.399999976158,
,923.0,html-keyboard-response,114,2.0.0,1119251,x921ptf2rz,693e609928541f4126f49c4b,693efce69f5d75d813903ac7,39,feedbackTrial, ,,,,,,,,,,,,,,,,,"
                    <div style=""text-align:center;"">
                        <p style=""color:red; font-size:24px;"">Incorrect</p><p>You still have 32 points.</p>
                        <p> Press any key to continue. </p>
                    </div>
                    "
,,html-keyboard-response,115,2.0.0,1121858,x921ptf2rz,693e609928541f4126f49c4b,693efce69f5d75d813903ac7,39,socialPredictionGame,,,,"{""R"":10,""P"":5,""S"":0,""T"":5}",0.0,5.0,10.0,5.0,SH,Blue,coop,E.B.,pess_inv,coop,9.0,1.0,2605.2999999523163,
,676.0,html-keyboard-response,116,2.0.0,1122534,x921ptf2rz,693e609928541f4126f49c4b,693efce69f5d75d813903ac7,39,feedbackTrial, ,,,,,,,,,,,,,,,,,"
                    <div style=""text-align:center;"">
                        <p style=""color:green; font-size:24px;"">Correct!</p><p>You now have 33 points.</p>
                        <p> Press any key to continue. </p>
                    </div>
                    "
,,html-keyboard-response,117,2.0.0,1125228,x921ptf2rz,693e609928541f4126f49c4b,693efce69f5d75d813903ac7,39,socialPredictionGame,,,,"{""R"":10,""P"":5,""S"":0,""T"":8}",0.0,8.0,10.0,5.0,SH,Blue,coop,E.B.,pess_inv,coop,9.0,1.0,2692.600000023842,
,800.0,html-keyboard-response,118,2.0.0,1126029,x921ptf2rz,693e609928541f4126f49c4b,693efce69f5d75d813903ac7,39,feedbackTrial, ,,,,,,,,,,,,,,,,,"
                    <div style=""text-align:center;"">
                        <p style=""color:green; font-size:24px;"">Correct!</p><p>You now have 34 points.</p>
                        <p> Press any key to continue. </p>
                    </div>
                    "
,,html-keyboard-response,119,2.0.0,1129151,x921ptf2rz,693e609928541f4126f49c4b,693efce69f5d75d813903ac7,39,socialPredictionGame,,,,"{""R"":10,""P"":5,""S"":3,""T"":15}",3.0,15.0,10.0,5.0,PD,Purple,def,E.B.,pess_inv,coop,8.0,0.0,3120.800000011921,
,535.0,html-keyboard-response,120,2.0.0,1129687,x921ptf2rz,693e609928541f4126f49c4b,693efce69f5d75d813903ac7,39,feedbackTrial, ,,,,,,,,,,,,,,,,,"
                    <div style=""text-align:center;"">
                        <p style=""color:red; font-size:24px;"">Incorrect</p><p>You still have 34 points.</p>
                        <p> Press any key to continue. </p>
                    </div>
                    "
,,html-keyboard-response,121,2.0.0,1132129,x921ptf2rz,693e609928541f4126f49c4b,693efce69f5d75d813903ac7,39,socialPredictionGame,,,,"{""R"":10,""P"":5,""S"":10,""T"":5}",10.0,5.0,10.0,5.0,HG,Blue,coop,E.B.,pess_inv,def,7.0,0.0,2441.300000011921,
,592.0,html-keyboard-response,122,2.0.0,1132722,x921ptf2rz,693e609928541f4126f49c4b,693efce69f5d75d813903ac7,39,feedbackTrial, ,,,,,,,,,,,,,,,,,"
                    <div style=""text-align:center;"">
                        <p style=""color:red; font-size:24px;"">Incorrect</p><p>You still have 34 points.</p>
                        <p> Press any key to continue. </p>
                    </div>
                    "
,,html-keyboard-response,123,2.0.0,1137537,x921ptf2rz,693e609928541f4126f49c4b,693efce69f5d75d813903ac7,39,socialPredictionGame,,,,"{""R"":10,""P"":5,""S"":7,""T"":8}",7.0,8.0,10.0,5.0,HG,Blue,coop,E.B.,pess_inv,def,8.0,0.0,4814.5,
,764.0,html-keyboard-response,124,2.0.0,1138303,x921ptf2rz,693e609928541f4126f49c4b,693efce69f5d75d813903ac7,39,feedbackTrial, ,,,,,,,,,,,,,,,,,"
                    <div style=""text-align:center;"">
                        <p style=""color:red; font-size:24px;"">Incorrect</p><p>You still have 34 points.</p>
                        <p> Press any key to continue. </p>
                    </div>
                    "
,,html-keyboard-response,125,2.0.0,1140719,x921ptf2rz,693e609928541f4126f49c4b,693efce69f5d75d813903ac7,39,socialPredictionGame,,,,"{""R"":10,""P"":5,""S"":7,""T"":12}",7.0,12.0,10.0,5.0,SG,Purple,def,E.B.,pess_inv,def,8.0,1.0,2415.300000011921,
,739.0,html-keyboard-response,126,2.0.0,1141459,x921ptf2rz,693e609928541f4126f49c4b,693efce69f5d75d813903ac7,39,feedbackTrial, ,,,,,,,,,,,,,,,,,"
                    <div style=""text-align:center;"">
                        <p style=""color:green; font-size:24px;"">Correct!</p><p>You now have 35 points.</p>
                        <p> Press any key to continue. </p>
                    </div>
                    "
,,html-keyboard-response,127,2.0.0,1143615,x921ptf2rz,693e609928541f4126f49c4b,693efce69f5d75d813903ac7,39,socialPredictionGame,,,,"{""R"":10,""P"":5,""S"":10,""T"":12}",10.0,12.0,10.0,5.0,SG,Blue,coop,E.B.,pess_inv,def,8.0,0.0,2155.399999976158,
,583.0,html-keyboard-response,128,2.0.0,1144198,x921ptf2rz,693e609928541f4126f49c4b,693efce69f5d75d813903ac7,39,feedbackTrial, ,,,,,,,,,,,,,,,,,"
                    <div style=""text-align:center;"">
                        <p style=""color:red; font-size:24px;"">Incorrect</p><p>You still have 35 points.</p>
                        <p> Press any key to continue. </p>
                    </div>
                    "
,,html-keyboard-response,129,2.0.0,1146404,x921ptf2rz,693e609928541f4126f49c4b,693efce69f5d75d813903ac7,39,socialPredictionGame,,,,"{""R"":10,""P"":5,""S"":0,""T"":15}",0.0,15.0,10.0,5.0,PD,Purple,def,E.B.,pess_inv,coop,7.0,0.0,2203.900000035763,
,622.0,html-keyboard-response,130,2.0.0,1147026,x921ptf2rz,693e609928541f4126f49c4b,693efce69f5d75d813903ac7,39,feedbackTrial, ,,,,,,,,,,,,,,,,,"
                    <div style=""text-align:center;"">
                        <p style=""color:red; font-size:24px;"">Incorrect</p><p>You still have 35 points.</p>
                        <p> Press any key to continue. </p>
                    </div>
                    "
,,html-keyboard-response,131,2.0.0,1149395,x921ptf2rz,693e609928541f4126f49c4b,693efce69f5d75d813903ac7,39,socialPredictionGame,,,,"{""R"":10,""P"":5,""S"":0,""T"":12}",0.0,12.0,10.0,5.0,PD,Purple,def,E.B.,pess_inv,coop,8.0,0.0,2366.899999976158,
,620.0,html-keyboard-response,132,2.0.0,1150015,x921ptf2rz,693e609928541f4126f49c4b,693efce69f5d75d813903ac7,39,feedbackTrial, ,,,,,,,,,,,,,,,,,"
                    <div style=""text-align:center;"">
                        <p style=""color:red; font-size:24px;"">Incorrect</p><p>You still have 35 points.</p>
                        <p> Press any key to continue. </p>
                    </div>
                    "
,,html-keyboard-response,133,2.0.0,1152475,x921ptf2rz,693e609928541f4126f49c4b,693efce69f5d75d813903ac7,39,socialPredictionGame,,,,"{""R"":10,""P"":5,""S"":3,""T"":5}",3.0,5.0,10.0,5.0,SH,Blue,coop,E.B.,pess_inv,coop,3.0,1.0,2459.199999988079,
,821.0,html-keyboard-response,134,2.0.0,1153297,x921ptf2rz,693e609928541f4126f49c4b,693efce69f5d75d813903ac7,39,feedbackTrial, ,,,,,,,,,,,,,,,,,"
                    <div style=""text-align:center;"">
                        <p style=""color:green; font-size:24px;"">Correct!</p><p>You now have 36 points.</p>
                        <p> Press any key to continue. </p>
                    </div>
                    "
,,html-keyboard-response,135,2.0.0,1155854,x921ptf2rz,693e609928541f4126f49c4b,693efce69f5d75d813903ac7,39,socialPredictionGame,,,,"{""R"":10,""P"":5,""S"":3,""T"":12}",3.0,12.0,10.0,5.0,PD,Purple,def,E.B.,pess_inv,coop,3.0,0.0,2555.599999964237,
,747.0,html-keyboard-response,136,2.0.0,1156601,x921ptf2rz,693e609928541f4126f49c4b,693efce69f5d75d813903ac7,39,feedbackTrial, ,,,,,,,,,,,,,,,,,"
                    <div style=""text-align:center;"">
                        <p style=""color:red; font-size:24px;"">Incorrect</p><p>You still have 36 points.</p>
                        <p> Press any key to continue. </p>
                    </div>
                    "
,,html-keyboard-response,137,2.0.0,1158869,x921ptf2rz,693e609928541f4126f49c4b,693efce69f5d75d813903ac7,39,socialPredictionGame,,,,"{""R"":10,""P"":5,""S"":10,""T"":15}",10.0,15.0,10.0,5.0,SG,Purple,def,E.B.,pess_inv,def,2.0,1.0,2266.600000023842,
,648.0,html-keyboard-response,138,2.0.0,1159518,x921ptf2rz,693e609928541f4126f49c4b,693efce69f5d75d813903ac7,39,feedbackTrial, ,,,,,,,,,,,,,,,,,"
                    <div style=""text-align:center;"">
                        <p style=""color:green; font-size:24px;"">Correct!</p><p>You now have 37 points.</p>
                        <p> Press any key to continue. </p>
                    </div>
                    "
,,html-keyboard-response,139,2.0.0,1161499,x921ptf2rz,693e609928541f4126f49c4b,693efce69f5d75d813903ac7,39,socialPredictionGame,,,,"{""R"":10,""P"":5,""S"":7,""T"":15}",7.0,15.0,10.0,5.0,SG,Blue,coop,E.B.,pess_inv,def,3.0,0.0,1980.199999988079,
,1372.0,html-keyboard-response,140,2.0.0,1162872,x921ptf2rz,693e609928541f4126f49c4b,693efce69f5d75d813903ac7,39,feedbackTrial, ,,,,,,,,,,,,,,,,,"
                    <div style=""text-align:center;"">
                        <p style=""color:red; font-size:24px;"">Incorrect</p><p>You still have 37 points.</p>
                        <p> Press any key to continue. </p>
                    </div>
                    "
,,html-keyboard-response,141,2.0.0,1165043,x921ptf2rz,693e609928541f4126f49c4b,693efce69f5d75d813903ac7,39,socialPredictionGame,,,,"{""R"":10,""P"":5,""S"":3,""T"":8}",3.0,8.0,10.0,5.0,SH,Blue,coop,E.B.,pess_inv,coop,3.0,1.0,2169.300000011921,
,929.0,html-keyboard-response,142,2.0.0,1165973,x921ptf2rz,693e609928541f4126f49c4b,693efce69f5d75d813903ac7,39,feedbackTrial, ,,,,,,,,,,,,,,,,,"
                    <div style=""text-align:center;"">
                        <p style=""color:green; font-size:24px;"">Correct!</p><p>You now have 38 points.</p>
                        <p> Press any key to continue. </p>
                    </div>
                    "
,,html-keyboard-response,143,2.0.0,1168619,x921ptf2rz,693e609928541f4126f49c4b,693efce69f5d75d813903ac7,39,socialPredictionGame,,,,"{""R"":10,""P"":5,""S"":10,""T"":8}",10.0,8.0,10.0,5.0,HG,Purple,def,E.B.,pess_inv,def,3.0,1.0,2644.899999976158,
,1017.0,html-keyboard-response,144,2.0.0,1169637,x921ptf2rz,693e609928541f4126f49c4b,693efce69f5d75d813903ac7,39,feedbackTrial, ,,,,,,,,,,,,,,,,,"
                    <div style=""text-align:center;"">
                        <p style=""color:green; font-size:24px;"">Correct!</p><p>You now have 39 points.</p>
                        <p> Press any key to continue. </p>
                    </div>
                    "
,8694.0,survey-html-form,145,2.1.0,1178332,x921ptf2rz,693e609928541f4126f49c4b,693efce69f5d75d813903ac7,39,strategyPrediction,"{""strategyPrediction"":""I could not figure out their strategy. ""}",,,,,,,,,,,,,,,,,
,6735.0,survey-html-form,146,2.1.0,1185068,x921ptf2rz,693e609928541f4126f49c4b,693efce69f5d75d813903ac7,39,demographics,"{""age"":""35"",""gender"":""Male""}",,,,,,,,,,,,,,,,,
,5075.0,survey-html-form,147,2.1.0,1190143,x921ptf2rz,693e609928541f4126f49c4b,693efce69f5d75d813903ac7,39,technical,"{""technical"":""No"",""feedback"":""No""}",,,,,,,,,,,,,,,,,
