view_history,rt,trial_type,trial_index,plugin_version,time_elapsed,subjectID,studyID,sessionID,overallBonusPoints,task,response,question_order,success,Matrix,S,T,R,P,GameType,choice,GivenAns,Player,PlayerType,CorrAns,confidence,ScoreNum,time_on_trial,stimulus
[{"page_index":0,"viewing_time":33949},{"page_index":1,"viewing_time":7597}],41546,instructions,0,2.1.0,41560,xr5umrxc29,693e609928541f4126f49c4b,693eff58e3bcd6ced1026d86,37,,,,,,,,,,,,,,,,,,,
[{"page_index":0,"viewing_time":24091}],24091,instructions,1,2.1.0,65656,xr5umrxc29,693e609928541f4126f49c4b,693eff58e3bcd6ced1026d86,37,,,,,,,,,,,,,,,,,,,
[{"page_index":0,"viewing_time":6193}],6193,instructions,2,2.1.0,71852,xr5umrxc29,693e609928541f4126f49c4b,693eff58e3bcd6ced1026d86,37,,,,,,,,,,,,,,,,,,,
,65971,survey-multi-choice,3,null,137837,xr5umrxc29,693e609928541f4126f49c4b,693eff58e3bcd6ced1026d86,37,comprehensionCheck,{"task":"Choose the option the anonymized participant chose","incentive":"Yes—they received bonuses based on their performance"},[0,1],,,,,,,,,,,,,,,,
,2485,fullscreen,4,2.1.0,141337,xr5umrxc29,693e609928541f4126f49c4b,693eff58e3bcd6ced1026d86,37,,,,true,,,,,,,,,,,,,,,
[{"page_index":0,"viewing_time":20938}],20938,instructions,5,2.1.0,162278,xr5umrxc29,693e609928541f4126f49c4b,693eff58e3bcd6ced1026d86,37,,,,,,,,,,,,,,,,,,,
,,html-keyboard-response,6,2.0.0,186330,xr5umrxc29,693e609928541f4126f49c4b,693eff58e3bcd6ced1026d86,37,playOwnGame,,,,{"R":10,"P":5,"S":0,"T":5},0,5,10,5,SH,Green,def,,,,,,,
,,html-keyboard-response,7,2.0.0,205785,xr5umrxc29,693e609928541f4126f49c4b,693eff58e3bcd6ced1026d86,37,playOwnGame,,,,{"R":10,"P":5,"S":7,"T":5},7,5,10,5,HG,Purple,coop,,,,,,,
,,html-keyboard-response,8,2.0.0,225210,xr5umrxc29,693e609928541f4126f49c4b,693eff58e3bcd6ced1026d86,37,playOwnGame,,,,{"R":10,"P":5,"S":3,"T":15},3,15,10,5,PD,Green,def,,,,,,,
,,html-keyboard-response,9,2.0.0,260226,xr5umrxc29,693e609928541f4126f49c4b,693eff58e3bcd6ced1026d86,37,playOwnGame,,,,{"R":10,"P":5,"S":7,"T":12},7,12,10,5,SG,Purple,coop,,,,,,,
[{"page_index":0,"viewing_time":3528}],3528,instructions,10,2.1.0,263758,xr5umrxc29,693e609928541f4126f49c4b,693eff58e3bcd6ced1026d86,37,,,,,,,,,,,,,,,,,,,
,,html-keyboard-response,11,2.0.0,345342,xr5umrxc29,693e609928541f4126f49c4b,693eff58e3bcd6ced1026d86,37,socialPredictionGame,,,,{"R":10,"P":5,"S":7,"T":8},7,8,10,5,HG,Blue,coop,E.B.,pess_nat,coop,8,1,81580,
,3168,html-keyboard-response,12,2.0.0,348513,xr5umrxc29,693e609928541f4126f49c4b,693eff58e3bcd6ced1026d86,37,feedbackTrial, ,,,,,,,,,,,,,,,,,
                    <div style="text-align:center;">
                        <p style="color:green; font-size:24px;">Correct!</p><p>You now have 1 points.</p>
                        <p> Press any key to continue. </p>
                    </div>
                    
,,html-keyboard-response,13,2.0.0,365859,xr5umrxc29,693e609928541f4126f49c4b,693eff58e3bcd6ced1026d86,37,socialPredictionGame,,,,{"R":10,"P":5,"S":10,"T":8},10,8,10,5,HG,Blue,coop,E.B.,pess_nat,coop,8,1,17345.5,
,1353,html-keyboard-response,14,2.0.0,367214,xr5umrxc29,693e609928541f4126f49c4b,693eff58e3bcd6ced1026d86,37,feedbackTrial, ,,,,,,,,,,,,,,,,,
                    <div style="text-align:center;">
                        <p style="color:green; font-size:24px;">Correct!</p><p>You now have 2 points.</p>
                        <p> Press any key to continue. </p>
                    </div>
                    
,,html-keyboard-response,15,2.0.0,384154,xr5umrxc29,693e609928541f4126f49c4b,693eff58e3bcd6ced1026d86,37,socialPredictionGame,,,,{"R":10,"P":5,"S":0,"T":5},0,5,10,5,SH,Green,def,E.B.,pess_nat,def,7,1,16936.59999999404,
,1180,html-keyboard-response,16,2.0.0,385336,xr5umrxc29,693e609928541f4126f49c4b,693eff58e3bcd6ced1026d86,37,feedbackTrial, ,,,,,,,,,,,,,,,,,
                    <div style="text-align:center;">
                        <p style="color:green; font-size:24px;">Correct!</p><p>You now have 3 points.</p>
                        <p> Press any key to continue. </p>
                    </div>
                    
,,html-keyboard-response,17,2.0.0,395326,xr5umrxc29,693e609928541f4126f49c4b,693eff58e3bcd6ced1026d86,37,socialPredictionGame,,,,{"R":10,"P":5,"S":10,"T":12},10,12,10,5,SG,Blue,coop,E.B.,pess_nat,coop,8,1,9988.70000000298,
,1043,html-keyboard-response,18,2.0.0,396371,xr5umrxc29,693e609928541f4126f49c4b,693eff58e3bcd6ced1026d86,37,feedbackTrial, ,,,,,,,,,,,,,,,,,
                    <div style="text-align:center;">
                        <p style="color:green; font-size:24px;">Correct!</p><p>You now have 4 points.</p>
                        <p> Press any key to continue. </p>
                    </div>
                    
,,html-keyboard-response,19,2.0.0,405952,xr5umrxc29,693e609928541f4126f49c4b,693eff58e3bcd6ced1026d86,37,socialPredictionGame,,,,{"R":10,"P":5,"S":7,"T":5},7,5,10,5,HG,Blue,coop,E.B.,pess_nat,coop,8,1,9577.29999999702,
,1013,html-keyboard-response,20,2.0.0,406968,xr5umrxc29,693e609928541f4126f49c4b,693eff58e3bcd6ced1026d86,37,feedbackTrial, ,,,,,,,,,,,,,,,,,
                    <div style="text-align:center;">
                        <p style="color:green; font-size:24px;">Correct!</p><p>You now have 5 points.</p>
                        <p> Press any key to continue. </p>
                    </div>
                    
,,html-keyboard-response,21,2.0.0,425255,xr5umrxc29,693e609928541f4126f49c4b,693eff58e3bcd6ced1026d86,37,socialPredictionGame,,,,{"R":10,"P":5,"S":10,"T":5},10,5,10,5,HG,Blue,coop,E.B.,pess_nat,coop,8,1,18283.5,
,1048,html-keyboard-response,22,2.0.0,426306,xr5umrxc29,693e609928541f4126f49c4b,693eff58e3bcd6ced1026d86,37,feedbackTrial, ,,,,,,,,,,,,,,,,,
                    <div style="text-align:center;">
                        <p style="color:green; font-size:24px;">Correct!</p><p>You now have 6 points.</p>
                        <p> Press any key to continue. </p>
                    </div>
                    
,,html-keyboard-response,23,2.0.0,443943,xr5umrxc29,693e609928541f4126f49c4b,693eff58e3bcd6ced1026d86,37,socialPredictionGame,,,,{"R":10,"P":5,"S":3,"T":5},3,5,10,5,SH,Green,def,E.B.,pess_nat,def,8,1,17635.89999999106,
,898,html-keyboard-response,24,2.0.0,444843,xr5umrxc29,693e609928541f4126f49c4b,693eff58e3bcd6ced1026d86,37,feedbackTrial, ,,,,,,,,,,,,,,,,,
                    <div style="text-align:center;">
                        <p style="color:green; font-size:24px;">Correct!</p><p>You now have 7 points.</p>
                        <p> Press any key to continue. </p>
                    </div>
                    
,,html-keyboard-response,25,2.0.0,453930,xr5umrxc29,693e609928541f4126f49c4b,693eff58e3bcd6ced1026d86,37,socialPredictionGame,,,,{"R":10,"P":5,"S":7,"T":15},7,15,10,5,SG,Green,def,E.B.,pess_nat,coop,8,0,9085.79999999702,
,968,html-keyboard-response,26,2.0.0,454900,xr5umrxc29,693e609928541f4126f49c4b,693eff58e3bcd6ced1026d86,37,feedbackTrial, ,,,,,,,,,,,,,,,,,
                    <div style="text-align:center;">
                        <p style="color:red; font-size:24px;">Incorrect</p><p>You still have 7 points.</p>
                        <p> Press any key to continue. </p>
                    </div>
                    
,,html-keyboard-response,27,2.0.0,466066,xr5umrxc29,693e609928541f4126f49c4b,693eff58e3bcd6ced1026d86,37,socialPredictionGame,,,,{"R":10,"P":5,"S":0,"T":15},0,15,10,5,PD,Green,def,E.B.,pess_nat,def,8,1,11162.5,
,1030,html-keyboard-response,28,2.0.0,467099,xr5umrxc29,693e609928541f4126f49c4b,693eff58e3bcd6ced1026d86,37,feedbackTrial, ,,,,,,,,,,,,,,,,,
                    <div style="text-align:center;">
                        <p style="color:green; font-size:24px;">Correct!</p><p>You now have 8 points.</p>
                        <p> Press any key to continue. </p>
                    </div>
                    
,,html-keyboard-response,29,2.0.0,474185,xr5umrxc29,693e609928541f4126f49c4b,693eff58e3bcd6ced1026d86,37,socialPredictionGame,,,,{"R":10,"P":5,"S":3,"T":12},3,12,10,5,PD,Green,def,E.B.,pess_nat,def,8,1,7084.79999999702,
,898,html-keyboard-response,30,2.0.0,475085,xr5umrxc29,693e609928541f4126f49c4b,693eff58e3bcd6ced1026d86,37,feedbackTrial, ,,,,,,,,,,,,,,,,,
                    <div style="text-align:center;">
                        <p style="color:green; font-size:24px;">Correct!</p><p>You now have 9 points.</p>
                        <p> Press any key to continue. </p>
                    </div>
                    
,,html-keyboard-response,31,2.0.0,484087,xr5umrxc29,693e609928541f4126f49c4b,693eff58e3bcd6ced1026d86,37,socialPredictionGame,,,,{"R":10,"P":5,"S":3,"T":15},3,15,10,5,PD,Green,def,E.B.,pess_nat,def,9,1,9000.89999999106,
,975,html-keyboard-response,32,2.0.0,485063,xr5umrxc29,693e609928541f4126f49c4b,693eff58e3bcd6ced1026d86,37,feedbackTrial, ,,,,,,,,,,,,,,,,,
                    <div style="text-align:center;">
                        <p style="color:green; font-size:24px;">Correct!</p><p>You now have 10 points.</p>
                        <p> Press any key to continue. </p>
                    </div>
                    
,,html-keyboard-response,33,2.0.0,496487,xr5umrxc29,693e609928541f4126f49c4b,693eff58e3bcd6ced1026d86,37,socialPredictionGame,,,,{"R":10,"P":5,"S":3,"T":8},3,8,10,5,SH,Blue,coop,E.B.,pess_nat,def,7,0,11422.40000000596,
,914,html-keyboard-response,34,2.0.0,497404,xr5umrxc29,693e609928541f4126f49c4b,693eff58e3bcd6ced1026d86,37,feedbackTrial, ,,,,,,,,,,,,,,,,,
                    <div style="text-align:center;">
                        <p style="color:red; font-size:24px;">Incorrect</p><p>You still have 10 points.</p>
                        <p> Press any key to continue. </p>
                    </div>
                    
,,html-keyboard-response,35,2.0.0,505131,xr5umrxc29,693e609928541f4126f49c4b,693eff58e3bcd6ced1026d86,37,socialPredictionGame,,,,{"R":10,"P":5,"S":7,"T":12},7,12,10,5,SG,Green,def,E.B.,pess_nat,coop,10,0,7724.0999999940395,
,969,html-keyboard-response,36,2.0.0,506101,xr5umrxc29,693e609928541f4126f49c4b,693eff58e3bcd6ced1026d86,37,feedbackTrial, ,,,,,,,,,,,,,,,,,
                    <div style="text-align:center;">
                        <p style="color:red; font-size:24px;">Incorrect</p><p>You still have 10 points.</p>
                        <p> Press any key to continue. </p>
                    </div>
                    
,,html-keyboard-response,37,2.0.0,515119,xr5umrxc29,693e609928541f4126f49c4b,693eff58e3bcd6ced1026d86,37,socialPredictionGame,,,,{"R":10,"P":5,"S":10,"T":15},10,15,10,5,SG,Blue,coop,E.B.,pess_nat,coop,9,1,9016.89999999106,
,865,html-keyboard-response,38,2.0.0,515987,xr5umrxc29,693e609928541f4126f49c4b,693eff58e3bcd6ced1026d86,37,feedbackTrial, ,,,,,,,,,,,,,,,,,
                    <div style="text-align:center;">
                        <p style="color:green; font-size:24px;">Correct!</p><p>You now have 11 points.</p>
                        <p> Press any key to continue. </p>
                    </div>
                    
,,html-keyboard-response,39,2.0.0,524856,xr5umrxc29,693e609928541f4126f49c4b,693eff58e3bcd6ced1026d86,37,socialPredictionGame,,,,{"R":10,"P":5,"S":0,"T":12},0,12,10,5,PD,Green,def,E.B.,pess_nat,def,8,1,8865.29999999702,
,905,html-keyboard-response,40,2.0.0,525762,xr5umrxc29,693e609928541f4126f49c4b,693eff58e3bcd6ced1026d86,37,feedbackTrial, ,,,,,,,,,,,,,,,,,
                    <div style="text-align:center;">
                        <p style="color:green; font-size:24px;">Correct!</p><p>You now have 12 points.</p>
                        <p> Press any key to continue. </p>
                    </div>
                    
,,html-keyboard-response,41,2.0.0,532305,xr5umrxc29,693e609928541f4126f49c4b,693eff58e3bcd6ced1026d86,37,socialPredictionGame,,,,{"R":10,"P":5,"S":0,"T":8},0,8,10,5,SH,Green,def,E.B.,pess_nat,def,8,1,6541.399999991059,
,906,html-keyboard-response,42,2.0.0,533213,xr5umrxc29,693e609928541f4126f49c4b,693eff58e3bcd6ced1026d86,37,feedbackTrial, ,,,,,,,,,,,,,,,,,
                    <div style="text-align:center;">
                        <p style="color:green; font-size:24px;">Correct!</p><p>You now have 13 points.</p>
                        <p> Press any key to continue. </p>
                    </div>
                    
,72327,survey-html-form,43,2.1.0,605544,xr5umrxc29,693e609928541f4126f49c4b,693eff58e3bcd6ced1026d86,37,strategyPrediction,{"strategyPrediction":"MAXIMIZING OWN PAYOFF"},,,,,,,,,,,,,,,,,
[{"page_index":0,"viewing_time":4485}],4485,instructions,44,2.1.0,610030,xr5umrxc29,693e609928541f4126f49c4b,693eff58e3bcd6ced1026d86,37,,,,,,,,,,,,,,,,,,,
,,html-keyboard-response,45,2.0.0,626488,xr5umrxc29,693e609928541f4126f49c4b,693eff58e3bcd6ced1026d86,37,socialPredictionGame,,,,{"R":10,"P":5,"S":10,"T":15},10,15,10,5,SG,Purple,def,G.P.,opt_nat,def,9,1,16456.20000000298,
,998,html-keyboard-response,46,2.0.0,627488,xr5umrxc29,693e609928541f4126f49c4b,693eff58e3bcd6ced1026d86,37,feedbackTrial, ,,,,,,,,,,,,,,,,,
                    <div style="text-align:center;">
                        <p style="color:green; font-size:24px;">Correct!</p><p>You now have 14 points.</p>
                        <p> Press any key to continue. </p>
                    </div>
                    
,,html-keyboard-response,47,2.0.0,638905,xr5umrxc29,693e609928541f4126f49c4b,693eff58e3bcd6ced1026d86,37,socialPredictionGame,,,,{"R":10,"P":5,"S":7,"T":5},7,5,10,5,HG,Red,coop,G.P.,opt_nat,coop,7,1,11415.59999999404,
,804,html-keyboard-response,48,2.0.0,639712,xr5umrxc29,693e609928541f4126f49c4b,693eff58e3bcd6ced1026d86,37,feedbackTrial, ,,,,,,,,,,,,,,,,,
                    <div style="text-align:center;">
                        <p style="color:green; font-size:24px;">Correct!</p><p>You now have 15 points.</p>
                        <p> Press any key to continue. </p>
                    </div>
                    
,,html-keyboard-response,49,2.0.0,647847,xr5umrxc29,693e609928541f4126f49c4b,693eff58e3bcd6ced1026d86,37,socialPredictionGame,,,,{"R":10,"P":5,"S":7,"T":12},7,12,10,5,SG,Purple,def,G.P.,opt_nat,def,7,1,8134.4000000059605,
,950,html-keyboard-response,50,2.0.0,648799,xr5umrxc29,693e609928541f4126f49c4b,693eff58e3bcd6ced1026d86,37,feedbackTrial, ,,,,,,,,,,,,,,,,,
                    <div style="text-align:center;">
                        <p style="color:green; font-size:24px;">Correct!</p><p>You now have 16 points.</p>
                        <p> Press any key to continue. </p>
                    </div>
                    
,,html-keyboard-response,51,2.0.0,666364,xr5umrxc29,693e609928541f4126f49c4b,693eff58e3bcd6ced1026d86,37,socialPredictionGame,,,,{"R":10,"P":5,"S":7,"T":8},7,8,10,5,HG,Red,coop,G.P.,opt_nat,coop,8,1,17560.90000000596,
,1009,html-keyboard-response,52,2.0.0,667375,xr5umrxc29,693e609928541f4126f49c4b,693eff58e3bcd6ced1026d86,37,feedbackTrial, ,,,,,,,,,,,,,,,,,
                    <div style="text-align:center;">
                        <p style="color:green; font-size:24px;">Correct!</p><p>You now have 17 points.</p>
                        <p> Press any key to continue. </p>
                    </div>
                    
,,html-keyboard-response,53,2.0.0,674715,xr5umrxc29,693e609928541f4126f49c4b,693eff58e3bcd6ced1026d86,37,socialPredictionGame,,,,{"R":10,"P":5,"S":3,"T":15},3,15,10,5,PD,Purple,def,G.P.,opt_nat,def,9,1,7339.0999999940395,
,953,html-keyboard-response,54,2.0.0,675672,xr5umrxc29,693e609928541f4126f49c4b,693eff58e3bcd6ced1026d86,37,feedbackTrial, ,,,,,,,,,,,,,,,,,
                    <div style="text-align:center;">
                        <p style="color:green; font-size:24px;">Correct!</p><p>You now have 18 points.</p>
                        <p> Press any key to continue. </p>
                    </div>
                    
,,html-keyboard-response,55,2.0.0,689315,xr5umrxc29,693e609928541f4126f49c4b,693eff58e3bcd6ced1026d86,37,socialPredictionGame,,,,{"R":10,"P":5,"S":0,"T":8},0,8,10,5,SH,Purple,def,G.P.,opt_nat,coop,8,0,13640.40000000596,
,1007,html-keyboard-response,56,2.0.0,690325,xr5umrxc29,693e609928541f4126f49c4b,693eff58e3bcd6ced1026d86,37,feedbackTrial, ,,,,,,,,,,,,,,,,,
                    <div style="text-align:center;">
                        <p style="color:red; font-size:24px;">Incorrect</p><p>You still have 18 points.</p>
                        <p> Press any key to continue. </p>
                    </div>
                    
,,html-keyboard-response,57,2.0.0,700652,xr5umrxc29,693e609928541f4126f49c4b,693eff58e3bcd6ced1026d86,37,socialPredictionGame,,,,{"R":10,"P":5,"S":3,"T":8},3,8,10,5,SH,Purple,def,G.P.,opt_nat,coop,9,0,10324.09999999404,
,800,html-keyboard-response,58,2.0.0,701454,xr5umrxc29,693e609928541f4126f49c4b,693eff58e3bcd6ced1026d86,37,feedbackTrial, ,,,,,,,,,,,,,,,,,
                    <div style="text-align:center;">
                        <p style="color:red; font-size:24px;">Incorrect</p><p>You still have 18 points.</p>
                        <p> Press any key to continue. </p>
                    </div>
                    
,,html-keyboard-response,59,2.0.0,714229,xr5umrxc29,693e609928541f4126f49c4b,693eff58e3bcd6ced1026d86,37,socialPredictionGame,,,,{"R":10,"P":5,"S":0,"T":5},0,5,10,5,SH,Purple,def,G.P.,opt_nat,coop,8,0,12772.39999999106,
,953,html-keyboard-response,60,2.0.0,715185,xr5umrxc29,693e609928541f4126f49c4b,693eff58e3bcd6ced1026d86,37,feedbackTrial, ,,,,,,,,,,,,,,,,,
                    <div style="text-align:center;">
                        <p style="color:red; font-size:24px;">Incorrect</p><p>You still have 18 points.</p>
                        <p> Press any key to continue. </p>
                    </div>
                    
,,html-keyboard-response,61,2.0.0,722862,xr5umrxc29,693e609928541f4126f49c4b,693eff58e3bcd6ced1026d86,37,socialPredictionGame,,,,{"R":10,"P":5,"S":10,"T":12},10,12,10,5,SG,Red,coop,G.P.,opt_nat,def,8,0,7675.29999999702,
,822,html-keyboard-response,62,2.0.0,723686,xr5umrxc29,693e609928541f4126f49c4b,693eff58e3bcd6ced1026d86,37,feedbackTrial, ,,,,,,,,,,,,,,,,,
                    <div style="text-align:center;">
                        <p style="color:red; font-size:24px;">Incorrect</p><p>You still have 18 points.</p>
                        <p> Press any key to continue. </p>
                    </div>
                    
,,html-keyboard-response,63,2.0.0,738117,xr5umrxc29,693e609928541f4126f49c4b,693eff58e3bcd6ced1026d86,37,socialPredictionGame,,,,{"R":10,"P":5,"S":3,"T":5},3,5,10,5,SH,Red,coop,G.P.,opt_nat,coop,8,1,14427.5,
,1044,html-keyboard-response,64,2.0.0,739163,xr5umrxc29,693e609928541f4126f49c4b,693eff58e3bcd6ced1026d86,37,feedbackTrial, ,,,,,,,,,,,,,,,,,
                    <div style="text-align:center;">
                        <p style="color:green; font-size:24px;">Correct!</p><p>You now have 19 points.</p>
                        <p> Press any key to continue. </p>
                    </div>
                    
,,html-keyboard-response,65,2.0.0,747124,xr5umrxc29,693e609928541f4126f49c4b,693eff58e3bcd6ced1026d86,37,socialPredictionGame,,,,{"R":10,"P":5,"S":10,"T":8},10,8,10,5,HG,Red,coop,G.P.,opt_nat,coop,8,1,7958.20000000298,
,978,html-keyboard-response,66,2.0.0,748106,xr5umrxc29,693e609928541f4126f49c4b,693eff58e3bcd6ced1026d86,37,feedbackTrial, ,,,,,,,,,,,,,,,,,
                    <div style="text-align:center;">
                        <p style="color:green; font-size:24px;">Correct!</p><p>You now have 20 points.</p>
                        <p> Press any key to continue. </p>
                    </div>
                    
,,html-keyboard-response,67,2.0.0,753923,xr5umrxc29,693e609928541f4126f49c4b,693eff58e3bcd6ced1026d86,37,socialPredictionGame,,,,{"R":10,"P":5,"S":0,"T":15},0,15,10,5,PD,Purple,def,G.P.,opt_nat,def,8,1,5815.5,
,857,html-keyboard-response,68,2.0.0,754782,xr5umrxc29,693e609928541f4126f49c4b,693eff58e3bcd6ced1026d86,37,feedbackTrial, ,,,,,,,,,,,,,,,,,
                    <div style="text-align:center;">
                        <p style="color:green; font-size:24px;">Correct!</p><p>You now have 21 points.</p>
                        <p> Press any key to continue. </p>
                    </div>
                    
,,html-keyboard-response,69,2.0.0,760274,xr5umrxc29,693e609928541f4126f49c4b,693eff58e3bcd6ced1026d86,37,socialPredictionGame,,,,{"R":10,"P":5,"S":0,"T":12},0,12,10,5,PD,Purple,def,G.P.,opt_nat,def,8,1,5490.29999999702,
,864,html-keyboard-response,70,2.0.0,761139,xr5umrxc29,693e609928541f4126f49c4b,693eff58e3bcd6ced1026d86,37,feedbackTrial, ,,,,,,,,,,,,,,,,,
                    <div style="text-align:center;">
                        <p style="color:green; font-size:24px;">Correct!</p><p>You now have 22 points.</p>
                        <p> Press any key to continue. </p>
                    </div>
                    
,,html-keyboard-response,71,2.0.0,768935,xr5umrxc29,693e609928541f4126f49c4b,693eff58e3bcd6ced1026d86,37,socialPredictionGame,,,,{"R":10,"P":5,"S":10,"T":5},10,5,10,5,HG,Red,coop,G.P.,opt_nat,coop,8,1,7794.20000000298,
,984,html-keyboard-response,72,2.0.0,769920,xr5umrxc29,693e609928541f4126f49c4b,693eff58e3bcd6ced1026d86,37,feedbackTrial, ,,,,,,,,,,,,,,,,,
                    <div style="text-align:center;">
                        <p style="color:green; font-size:24px;">Correct!</p><p>You now have 23 points.</p>
                        <p> Press any key to continue. </p>
                    </div>
                    
,,html-keyboard-response,73,2.0.0,777405,xr5umrxc29,693e609928541f4126f49c4b,693eff58e3bcd6ced1026d86,37,socialPredictionGame,,,,{"R":10,"P":5,"S":7,"T":15},7,15,10,5,SG,Purple,def,G.P.,opt_nat,def,8,1,7483.600000008941,
,890,html-keyboard-response,74,2.0.0,778297,xr5umrxc29,693e609928541f4126f49c4b,693eff58e3bcd6ced1026d86,37,feedbackTrial, ,,,,,,,,,,,,,,,,,
                    <div style="text-align:center;">
                        <p style="color:green; font-size:24px;">Correct!</p><p>You now have 24 points.</p>
                        <p> Press any key to continue. </p>
                    </div>
                    
,,html-keyboard-response,75,2.0.0,784689,xr5umrxc29,693e609928541f4126f49c4b,693eff58e3bcd6ced1026d86,37,socialPredictionGame,,,,{"R":10,"P":5,"S":3,"T":12},3,12,10,5,PD,Purple,def,G.P.,opt_nat,def,8,1,6390.600000008941,
,765,html-keyboard-response,76,2.0.0,785456,xr5umrxc29,693e609928541f4126f49c4b,693eff58e3bcd6ced1026d86,37,feedbackTrial, ,,,,,,,,,,,,,,,,,
                    <div style="text-align:center;">
                        <p style="color:green; font-size:24px;">Correct!</p><p>You now have 25 points.</p>
                        <p> Press any key to continue. </p>
                    </div>
                    
,29180,survey-html-form,77,2.1.0,814639,xr5umrxc29,693e609928541f4126f49c4b,693eff58e3bcd6ced1026d86,37,strategyPrediction,{"strategyPrediction":"maximazing own payoff"},,,,,,,,,,,,,,,,,
[{"page_index":0,"viewing_time":1388}],1388,instructions,78,2.1.0,816039,xr5umrxc29,693e609928541f4126f49c4b,693eff58e3bcd6ced1026d86,37,,,,,,,,,,,,,,,,,,,
,,html-keyboard-response,79,2.0.0,824621,xr5umrxc29,693e609928541f4126f49c4b,693eff58e3bcd6ced1026d86,37,socialPredictionGame,,,,{"R":10,"P":5,"S":7,"T":12},7,12,10,5,SG,Blue,def,F.A.,pess_inv,def,8,1,8580.5,
,1042,html-keyboard-response,80,2.0.0,825665,xr5umrxc29,693e609928541f4126f49c4b,693eff58e3bcd6ced1026d86,37,feedbackTrial, ,,,,,,,,,,,,,,,,,
                    <div style="text-align:center;">
                        <p style="color:green; font-size:24px;">Correct!</p><p>You now have 26 points.</p>
                        <p> Press any key to continue. </p>
                    </div>
                    
,,html-keyboard-response,81,2.0.0,836104,xr5umrxc29,693e609928541f4126f49c4b,693eff58e3bcd6ced1026d86,37,socialPredictionGame,,,,{"R":10,"P":5,"S":10,"T":12},10,12,10,5,SG,Red,coop,F.A.,pess_inv,def,8,0,10435.5,
,990,html-keyboard-response,82,2.0.0,837096,xr5umrxc29,693e609928541f4126f49c4b,693eff58e3bcd6ced1026d86,37,feedbackTrial, ,,,,,,,,,,,,,,,,,
                    <div style="text-align:center;">
                        <p style="color:red; font-size:24px;">Incorrect</p><p>You still have 26 points.</p>
                        <p> Press any key to continue. </p>
                    </div>
                    
,,html-keyboard-response,83,2.0.0,844350,xr5umrxc29,693e609928541f4126f49c4b,693eff58e3bcd6ced1026d86,37,socialPredictionGame,,,,{"R":10,"P":5,"S":7,"T":15},7,15,10,5,SG,Blue,def,F.A.,pess_inv,def,8,1,7251.4000000059605,
,835,html-keyboard-response,84,2.0.0,845187,xr5umrxc29,693e609928541f4126f49c4b,693eff58e3bcd6ced1026d86,37,feedbackTrial, ,,,,,,,,,,,,,,,,,
                    <div style="text-align:center;">
                        <p style="color:green; font-size:24px;">Correct!</p><p>You now have 27 points.</p>
                        <p> Press any key to continue. </p>
                    </div>
                    
,,html-keyboard-response,85,2.0.0,853589,xr5umrxc29,693e609928541f4126f49c4b,693eff58e3bcd6ced1026d86,37,socialPredictionGame,,,,{"R":10,"P":5,"S":3,"T":5},3,5,10,5,SH,Red,coop,F.A.,pess_inv,coop,7,1,8398.5,
,848,html-keyboard-response,86,2.0.0,854439,xr5umrxc29,693e609928541f4126f49c4b,693eff58e3bcd6ced1026d86,37,feedbackTrial, ,,,,,,,,,,,,,,,,,
                    <div style="text-align:center;">
                        <p style="color:green; font-size:24px;">Correct!</p><p>You now have 28 points.</p>
                        <p> Press any key to continue. </p>
                    </div>
                    
,,html-keyboard-response,87,2.0.0,861620,xr5umrxc29,693e609928541f4126f49c4b,693eff58e3bcd6ced1026d86,37,socialPredictionGame,,,,{"R":10,"P":5,"S":3,"T":12},3,12,10,5,PD,Blue,def,F.A.,pess_inv,coop,8,0,7178,
,829,html-keyboard-response,88,2.0.0,862452,xr5umrxc29,693e609928541f4126f49c4b,693eff58e3bcd6ced1026d86,37,feedbackTrial, ,,,,,,,,,,,,,,,,,
                    <div style="text-align:center;">
                        <p style="color:red; font-size:24px;">Incorrect</p><p>You still have 28 points.</p>
                        <p> Press any key to continue. </p>
                    </div>
                    
,,html-keyboard-response,89,2.0.0,880319,xr5umrxc29,693e609928541f4126f49c4b,693eff58e3bcd6ced1026d86,37,socialPredictionGame,,,,{"R":10,"P":5,"S":3,"T":8},3,8,10,5,SH,Blue,def,F.A.,pess_inv,coop,8,0,17866,
,1208,html-keyboard-response,90,2.0.0,881528,xr5umrxc29,693e609928541f4126f49c4b,693eff58e3bcd6ced1026d86,37,feedbackTrial, ,,,,,,,,,,,,,,,,,
                    <div style="text-align:center;">
                        <p style="color:red; font-size:24px;">Incorrect</p><p>You still have 28 points.</p>
                        <p> Press any key to continue. </p>
                    </div>
                    
,,html-keyboard-response,91,2.0.0,891361,xr5umrxc29,693e609928541f4126f49c4b,693eff58e3bcd6ced1026d86,37,socialPredictionGame,,,,{"R":10,"P":5,"S":7,"T":5},7,5,10,5,HG,Red,coop,F.A.,pess_inv,def,8,0,9831.5,
,854,html-keyboard-response,92,2.0.0,892216,xr5umrxc29,693e609928541f4126f49c4b,693eff58e3bcd6ced1026d86,37,feedbackTrial, ,,,,,,,,,,,,,,,,,
                    <div style="text-align:center;">
                        <p style="color:red; font-size:24px;">Incorrect</p><p>You still have 28 points.</p>
                        <p> Press any key to continue. </p>
                    </div>
                    
,,html-keyboard-response,93,2.0.0,901417,xr5umrxc29,693e609928541f4126f49c4b,693eff58e3bcd6ced1026d86,37,socialPredictionGame,,,,{"R":10,"P":5,"S":10,"T":15},10,15,10,5,SG,Blue,def,F.A.,pess_inv,def,7,1,9199.59999999404,
,998,html-keyboard-response,94,2.0.0,902417,xr5umrxc29,693e609928541f4126f49c4b,693eff58e3bcd6ced1026d86,37,feedbackTrial, ,,,,,,,,,,,,,,,,,
                    <div style="text-align:center;">
                        <p style="color:green; font-size:24px;">Correct!</p><p>You now have 29 points.</p>
                        <p> Press any key to continue. </p>
                    </div>
                    
,,html-keyboard-response,95,2.0.0,907625,xr5umrxc29,693e609928541f4126f49c4b,693eff58e3bcd6ced1026d86,37,socialPredictionGame,,,,{"R":10,"P":5,"S":3,"T":15},3,15,10,5,PD,Blue,def,F.A.,pess_inv,coop,8,0,5207.5999999940395,
,696,html-keyboard-response,96,2.0.0,908324,xr5umrxc29,693e609928541f4126f49c4b,693eff58e3bcd6ced1026d86,37,feedbackTrial, ,,,,,,,,,,,,,,,,,
                    <div style="text-align:center;">
                        <p style="color:red; font-size:24px;">Incorrect</p><p>You still have 29 points.</p>
                        <p> Press any key to continue. </p>
                    </div>
                    
,,html-keyboard-response,97,2.0.0,915593,xr5umrxc29,693e609928541f4126f49c4b,693eff58e3bcd6ced1026d86,37,socialPredictionGame,,,,{"R":10,"P":5,"S":0,"T":15},0,15,10,5,PD,Blue,def,F.A.,pess_inv,coop,8,0,7265.399999991059,
,744,html-keyboard-response,98,2.0.0,916338,xr5umrxc29,693e609928541f4126f49c4b,693eff58e3bcd6ced1026d86,37,feedbackTrial, ,,,,,,,,,,,,,,,,,
                    <div style="text-align:center;">
                        <p style="color:red; font-size:24px;">Incorrect</p><p>You still have 29 points.</p>
                        <p> Press any key to continue. </p>
                    </div>
                    
,,html-keyboard-response,99,2.0.0,923349,xr5umrxc29,693e609928541f4126f49c4b,693eff58e3bcd6ced1026d86,37,socialPredictionGame,,,,{"R":10,"P":5,"S":10,"T":8},10,8,10,5,HG,Red,coop,F.A.,pess_inv,def,9,0,7009.5,
,923,html-keyboard-response,100,2.0.0,924274,xr5umrxc29,693e609928541f4126f49c4b,693eff58e3bcd6ced1026d86,37,feedbackTrial, ,,,,,,,,,,,,,,,,,
                    <div style="text-align:center;">
                        <p style="color:red; font-size:24px;">Incorrect</p><p>You still have 29 points.</p>
                        <p> Press any key to continue. </p>
                    </div>
                    
,,html-keyboard-response,101,2.0.0,934035,xr5umrxc29,693e609928541f4126f49c4b,693eff58e3bcd6ced1026d86,37,socialPredictionGame,,,,{"R":10,"P":5,"S":0,"T":5},0,5,10,5,SH,Blue,def,F.A.,pess_inv,coop,7,0,9759.90000000596,
,1318,html-keyboard-response,102,2.0.0,935356,xr5umrxc29,693e609928541f4126f49c4b,693eff58e3bcd6ced1026d86,37,feedbackTrial, ,,,,,,,,,,,,,,,,,
                    <div style="text-align:center;">
                        <p style="color:red; font-size:24px;">Incorrect</p><p>You still have 29 points.</p>
                        <p> Press any key to continue. </p>
                    </div>
                    
,,html-keyboard-response,103,2.0.0,953309,xr5umrxc29,693e609928541f4126f49c4b,693eff58e3bcd6ced1026d86,37,socialPredictionGame,,,,{"R":10,"P":5,"S":0,"T":12},0,12,10,5,PD,Blue,def,F.A.,pess_inv,coop,7,0,17949.80000001192,
,9806,html-keyboard-response,104,2.0.0,963116,xr5umrxc29,693e609928541f4126f49c4b,693eff58e3bcd6ced1026d86,37,feedbackTrial, ,,,,,,,,,,,,,,,,,
                    <div style="text-align:center;">
                        <p style="color:red; font-size:24px;">Incorrect</p><p>You still have 29 points.</p>
                        <p> Press any key to continue. </p>
                    </div>
                    
,,html-keyboard-response,105,2.0.0,969731,xr5umrxc29,693e609928541f4126f49c4b,693eff58e3bcd6ced1026d86,37,socialPredictionGame,,,,{"R":10,"P":5,"S":7,"T":8},7,8,10,5,HG,Red,coop,F.A.,pess_inv,def,6,0,6612.800000011921,
,905,html-keyboard-response,106,2.0.0,970637,xr5umrxc29,693e609928541f4126f49c4b,693eff58e3bcd6ced1026d86,37,feedbackTrial, ,,,,,,,,,,,,,,,,,
                    <div style="text-align:center;">
                        <p style="color:red; font-size:24px;">Incorrect</p><p>You still have 29 points.</p>
                        <p> Press any key to continue. </p>
                    </div>
                    
,,html-keyboard-response,107,2.0.0,977646,xr5umrxc29,693e609928541f4126f49c4b,693eff58e3bcd6ced1026d86,37,socialPredictionGame,,,,{"R":10,"P":5,"S":0,"T":8},0,8,10,5,SH,Blue,def,F.A.,pess_inv,coop,7,0,7005.20000000298,
,781,html-keyboard-response,108,2.0.0,978430,xr5umrxc29,693e609928541f4126f49c4b,693eff58e3bcd6ced1026d86,37,feedbackTrial, ,,,,,,,,,,,,,,,,,
                    <div style="text-align:center;">
                        <p style="color:red; font-size:24px;">Incorrect</p><p>You still have 29 points.</p>
                        <p> Press any key to continue. </p>
                    </div>
                    
,,html-keyboard-response,109,2.0.0,987424,xr5umrxc29,693e609928541f4126f49c4b,693eff58e3bcd6ced1026d86,37,socialPredictionGame,,,,{"R":10,"P":5,"S":10,"T":5},10,5,10,5,HG,Red,coop,F.A.,pess_inv,def,7,0,8992.90000000596,
,1139,html-keyboard-response,110,2.0.0,988565,xr5umrxc29,693e609928541f4126f49c4b,693eff58e3bcd6ced1026d86,37,feedbackTrial, ,,,,,,,,,,,,,,,,,
                    <div style="text-align:center;">
                        <p style="color:red; font-size:24px;">Incorrect</p><p>You still have 29 points.</p>
                        <p> Press any key to continue. </p>
                    </div>
                    
,62824,survey-html-form,111,2.1.0,1051391,xr5umrxc29,693e609928541f4126f49c4b,693eff58e3bcd6ced1026d86,37,strategyPrediction,{"strategyPrediction":"unpredictable strategy"},,,,,,,,,,,,,,,,,
[{"page_index":0,"viewing_time":2050}],2050,instructions,112,2.1.0,1053443,xr5umrxc29,693e609928541f4126f49c4b,693eff58e3bcd6ced1026d86,37,,,,,,,,,,,,,,,,,,,
,,html-keyboard-response,113,2.0.0,1061352,xr5umrxc29,693e609928541f4126f49c4b,693eff58e3bcd6ced1026d86,37,socialPredictionGame,,,,{"R":10,"P":5,"S":0,"T":8},0,8,10,5,SH,Purple,def,D.T.,opt_inv,def,8,1,7906.5,
,1188,html-keyboard-response,114,2.0.0,1062541,xr5umrxc29,693e609928541f4126f49c4b,693eff58e3bcd6ced1026d86,37,feedbackTrial, ,,,,,,,,,,,,,,,,,
                    <div style="text-align:center;">
                        <p style="color:green; font-size:24px;">Correct!</p><p>You now have 30 points.</p>
                        <p> Press any key to continue. </p>
                    </div>
                    
,,html-keyboard-response,115,2.0.0,1071115,xr5umrxc29,693e609928541f4126f49c4b,693eff58e3bcd6ced1026d86,37,socialPredictionGame,,,,{"R":10,"P":5,"S":10,"T":8},10,8,10,5,HG,Blue,coop,D.T.,opt_inv,def,7,0,8572.90000000596,
,837,html-keyboard-response,116,2.0.0,1071953,xr5umrxc29,693e609928541f4126f49c4b,693eff58e3bcd6ced1026d86,37,feedbackTrial, ,,,,,,,,,,,,,,,,,
                    <div style="text-align:center;">
                        <p style="color:red; font-size:24px;">Incorrect</p><p>You still have 30 points.</p>
                        <p> Press any key to continue. </p>
                    </div>
                    
,,html-keyboard-response,117,2.0.0,1076277,xr5umrxc29,693e609928541f4126f49c4b,693eff58e3bcd6ced1026d86,37,socialPredictionGame,,,,{"R":10,"P":5,"S":0,"T":12},0,12,10,5,PD,Purple,def,D.T.,opt_inv,coop,8,0,4323,
,730,html-keyboard-response,118,2.0.0,1077010,xr5umrxc29,693e609928541f4126f49c4b,693eff58e3bcd6ced1026d86,37,feedbackTrial, ,,,,,,,,,,,,,,,,,
                    <div style="text-align:center;">
                        <p style="color:red; font-size:24px;">Incorrect</p><p>You still have 30 points.</p>
                        <p> Press any key to continue. </p>
                    </div>
                    
,,html-keyboard-response,119,2.0.0,1084086,xr5umrxc29,693e609928541f4126f49c4b,693eff58e3bcd6ced1026d86,37,socialPredictionGame,,,,{"R":10,"P":5,"S":7,"T":12},7,12,10,5,SG,Purple,def,D.T.,opt_inv,coop,8,0,7075.20000000298,
,750,html-keyboard-response,120,2.0.0,1084837,xr5umrxc29,693e609928541f4126f49c4b,693eff58e3bcd6ced1026d86,37,feedbackTrial, ,,,,,,,,,,,,,,,,,
                    <div style="text-align:center;">
                        <p style="color:red; font-size:24px;">Incorrect</p><p>You still have 30 points.</p>
                        <p> Press any key to continue. </p>
                    </div>
                    
,,html-keyboard-response,121,2.0.0,1092795,xr5umrxc29,693e609928541f4126f49c4b,693eff58e3bcd6ced1026d86,37,socialPredictionGame,,,,{"R":10,"P":5,"S":3,"T":15},3,15,10,5,PD,Purple,def,D.T.,opt_inv,coop,8,0,7955.100000008941,
,975,html-keyboard-response,122,2.0.0,1093772,xr5umrxc29,693e609928541f4126f49c4b,693eff58e3bcd6ced1026d86,37,feedbackTrial, ,,,,,,,,,,,,,,,,,
                    <div style="text-align:center;">
                        <p style="color:red; font-size:24px;">Incorrect</p><p>You still have 30 points.</p>
                        <p> Press any key to continue. </p>
                    </div>
                    
,,html-keyboard-response,123,2.0.0,1097627,xr5umrxc29,693e609928541f4126f49c4b,693eff58e3bcd6ced1026d86,37,socialPredictionGame,,,,{"R":10,"P":5,"S":10,"T":12},10,12,10,5,SG,Blue,coop,D.T.,opt_inv,coop,6,1,3853.2999999970198,
,3452,html-keyboard-response,124,2.0.0,1101081,xr5umrxc29,693e609928541f4126f49c4b,693eff58e3bcd6ced1026d86,37,feedbackTrial, ,,,,,,,,,,,,,,,,,
                    <div style="text-align:center;">
                        <p style="color:green; font-size:24px;">Correct!</p><p>You now have 31 points.</p>
                        <p> Press any key to continue. </p>
                    </div>
                    
,,html-keyboard-response,125,2.0.0,1107402,xr5umrxc29,693e609928541f4126f49c4b,693eff58e3bcd6ced1026d86,37,socialPredictionGame,,,,{"R":10,"P":5,"S":10,"T":15},10,15,10,5,SG,Blue,coop,D.T.,opt_inv,coop,6,1,6317.5,
,828,html-keyboard-response,126,2.0.0,1108232,xr5umrxc29,693e609928541f4126f49c4b,693eff58e3bcd6ced1026d86,37,feedbackTrial, ,,,,,,,,,,,,,,,,,
                    <div style="text-align:center;">
                        <p style="color:green; font-size:24px;">Correct!</p><p>You now have 32 points.</p>
                        <p> Press any key to continue. </p>
                    </div>
                    
,,html-keyboard-response,127,2.0.0,1111661,xr5umrxc29,693e609928541f4126f49c4b,693eff58e3bcd6ced1026d86,37,socialPredictionGame,,,,{"R":10,"P":5,"S":0,"T":15},0,15,10,5,PD,Blue,coop,D.T.,opt_inv,coop,6,1,3425.2999999970198,
,947,html-keyboard-response,128,2.0.0,1112611,xr5umrxc29,693e609928541f4126f49c4b,693eff58e3bcd6ced1026d86,37,feedbackTrial, ,,,,,,,,,,,,,,,,,
                    <div style="text-align:center;">
                        <p style="color:green; font-size:24px;">Correct!</p><p>You now have 33 points.</p>
                        <p> Press any key to continue. </p>
                    </div>
                    
,,html-keyboard-response,129,2.0.0,1117566,xr5umrxc29,693e609928541f4126f49c4b,693eff58e3bcd6ced1026d86,37,socialPredictionGame,,,,{"R":10,"P":5,"S":10,"T":5},10,5,10,5,HG,Blue,coop,D.T.,opt_inv,def,6,0,4952.100000008941,
,840,html-keyboard-response,130,2.0.0,1118408,xr5umrxc29,693e609928541f4126f49c4b,693eff58e3bcd6ced1026d86,37,feedbackTrial, ,,,,,,,,,,,,,,,,,
                    <div style="text-align:center;">
                        <p style="color:red; font-size:24px;">Incorrect</p><p>You still have 33 points.</p>
                        <p> Press any key to continue. </p>
                    </div>
                    
,,html-keyboard-response,131,2.0.0,1126191,xr5umrxc29,693e609928541f4126f49c4b,693eff58e3bcd6ced1026d86,37,socialPredictionGame,,,,{"R":10,"P":5,"S":3,"T":5},3,5,10,5,SH,Blue,coop,D.T.,opt_inv,def,6,0,7780.100000008941,
,40434,html-keyboard-response,132,2.0.0,1166628,xr5umrxc29,693e609928541f4126f49c4b,693eff58e3bcd6ced1026d86,37,feedbackTrial, ,,,,,,,,,,,,,,,,,
                    <div style="text-align:center;">
                        <p style="color:red; font-size:24px;">Incorrect</p><p>You still have 33 points.</p>
                        <p> Press any key to continue. </p>
                    </div>
                    
,,html-keyboard-response,133,2.0.0,1173100,xr5umrxc29,693e609928541f4126f49c4b,693eff58e3bcd6ced1026d86,37,socialPredictionGame,,,,{"R":10,"P":5,"S":7,"T":8},7,8,10,5,HG,Purple,def,D.T.,opt_inv,def,7,1,6468.5999999940395,
,1419,html-keyboard-response,134,2.0.0,1174522,xr5umrxc29,693e609928541f4126f49c4b,693eff58e3bcd6ced1026d86,37,feedbackTrial, ,,,,,,,,,,,,,,,,,
                    <div style="text-align:center;">
                        <p style="color:green; font-size:24px;">Correct!</p><p>You now have 34 points.</p>
                        <p> Press any key to continue. </p>
                    </div>
                    
,,html-keyboard-response,135,2.0.0,1179540,xr5umrxc29,693e609928541f4126f49c4b,693eff58e3bcd6ced1026d86,37,socialPredictionGame,,,,{"R":10,"P":5,"S":7,"T":15},7,15,10,5,SG,Purple,def,D.T.,opt_inv,coop,8,0,5015.600000008941,
,787,html-keyboard-response,136,2.0.0,1180329,xr5umrxc29,693e609928541f4126f49c4b,693eff58e3bcd6ced1026d86,37,feedbackTrial, ,,,,,,,,,,,,,,,,,
                    <div style="text-align:center;">
                        <p style="color:red; font-size:24px;">Incorrect</p><p>You still have 34 points.</p>
                        <p> Press any key to continue. </p>
                    </div>
                    
,,html-keyboard-response,137,2.0.0,1187889,xr5umrxc29,693e609928541f4126f49c4b,693eff58e3bcd6ced1026d86,37,socialPredictionGame,,,,{"R":10,"P":5,"S":3,"T":8},3,8,10,5,SH,Purple,def,D.T.,opt_inv,def,7,1,7556.699999988079,
,886,html-keyboard-response,138,2.0.0,1188778,xr5umrxc29,693e609928541f4126f49c4b,693eff58e3bcd6ced1026d86,37,feedbackTrial, ,,,,,,,,,,,,,,,,,
                    <div style="text-align:center;">
                        <p style="color:green; font-size:24px;">Correct!</p><p>You now have 35 points.</p>
                        <p> Press any key to continue. </p>
                    </div>
                    
,,html-keyboard-response,139,2.0.0,1194131,xr5umrxc29,693e609928541f4126f49c4b,693eff58e3bcd6ced1026d86,37,socialPredictionGame,,,,{"R":10,"P":5,"S":3,"T":12},3,12,10,5,PD,Purple,def,D.T.,opt_inv,coop,7,0,5349.5,
,767,html-keyboard-response,140,2.0.0,1194901,xr5umrxc29,693e609928541f4126f49c4b,693eff58e3bcd6ced1026d86,37,feedbackTrial, ,,,,,,,,,,,,,,,,,
                    <div style="text-align:center;">
                        <p style="color:red; font-size:24px;">Incorrect</p><p>You still have 35 points.</p>
                        <p> Press any key to continue. </p>
                    </div>
                    
,,html-keyboard-response,141,2.0.0,1202197,xr5umrxc29,693e609928541f4126f49c4b,693eff58e3bcd6ced1026d86,37,socialPredictionGame,,,,{"R":10,"P":5,"S":0,"T":5},0,5,10,5,SH,Purple,def,D.T.,opt_inv,def,6,1,7293.5,
,850,html-keyboard-response,142,2.0.0,1203049,xr5umrxc29,693e609928541f4126f49c4b,693eff58e3bcd6ced1026d86,37,feedbackTrial, ,,,,,,,,,,,,,,,,,
                    <div style="text-align:center;">
                        <p style="color:green; font-size:24px;">Correct!</p><p>You now have 36 points.</p>
                        <p> Press any key to continue. </p>
                    </div>
                    
,,html-keyboard-response,143,2.0.0,1209713,xr5umrxc29,693e609928541f4126f49c4b,693eff58e3bcd6ced1026d86,37,socialPredictionGame,,,,{"R":10,"P":5,"S":7,"T":5},7,5,10,5,HG,Purple,def,D.T.,opt_inv,def,7,1,6660.70000000298,
,846,html-keyboard-response,144,2.0.0,1210562,xr5umrxc29,693e609928541f4126f49c4b,693eff58e3bcd6ced1026d86,37,feedbackTrial, ,,,,,,,,,,,,,,,,,
                    <div style="text-align:center;">
                        <p style="color:green; font-size:24px;">Correct!</p><p>You now have 37 points.</p>
                        <p> Press any key to continue. </p>
                    </div>
                    
,9987,survey-html-form,145,2.1.0,1220553,xr5umrxc29,693e609928541f4126f49c4b,693eff58e3bcd6ced1026d86,37,strategyPrediction,{"strategyPrediction":"random strategy"},,,,,,,,,,,,,,,,,
,8570,survey-html-form,146,2.1.0,1229132,xr5umrxc29,693e609928541f4126f49c4b,693eff58e3bcd6ced1026d86,37,demographics,{"age":"37","gender":"Male"},,,,,,,,,,,,,,,,,
,10263,survey-html-form,147,2.1.0,1239398,xr5umrxc29,693e609928541f4126f49c4b,693eff58e3bcd6ced1026d86,37,technical,{"technical":"no","feedback":"it was fun"},,,,,,,,,,,,,,,,,
