view_history,rt,trial_type,trial_index,plugin_version,time_elapsed,subjectID,studyID,sessionID,overallBonusPoints,task,response,question_order,success,Matrix,S,T,R,P,GameType,choice,GivenAns,Player,PlayerType,CorrAns,confidence,ScoreNum,time_on_trial,stimulus
[{"page_index":0,"viewing_time":6676},{"page_index":1,"viewing_time":11278}],17954,instructions,0,2.1.0,17959,ypm9ekzamj,692638df063c96e069476515,6932735b70b01b33123ce451,31,,,,,,,,,,,,,,,,,,,
[{"page_index":0,"viewing_time":88901}],88901,instructions,1,2.1.0,106860,ypm9ekzamj,692638df063c96e069476515,6932735b70b01b33123ce451,31,,,,,,,,,,,,,,,,,,,
[{"page_index":0,"viewing_time":5695}],5695,instructions,2,2.1.0,112556,ypm9ekzamj,692638df063c96e069476515,6932735b70b01b33123ce451,31,,,,,,,,,,,,,,,,,,,
,22326,survey-multi-choice,3,null,134883,ypm9ekzamj,692638df063c96e069476515,6932735b70b01b33123ce451,31,comprehensionCheck,{"task":"Choose the option the anonymized participant chose","incentive":"Yes—they received bonuses based on their performance"},[0,1],,,,,,,,,,,,,,,,
,2280,fullscreen,4,2.1.0,138175,ypm9ekzamj,692638df063c96e069476515,6932735b70b01b33123ce451,31,,,,true,,,,,,,,,,,,,,,
[{"page_index":0,"viewing_time":7583}],7583,instructions,5,2.1.0,145760,ypm9ekzamj,692638df063c96e069476515,6932735b70b01b33123ce451,31,,,,,,,,,,,,,,,,,,,
,,html-keyboard-response,6,2.0.0,161606,ypm9ekzamj,692638df063c96e069476515,6932735b70b01b33123ce451,31,playOwnGame,,,,{"R":10,"P":5,"S":3,"T":15},3,15,10,5,PD,Purple,coop,,,,,,,
,,html-keyboard-response,7,2.0.0,166812,ypm9ekzamj,692638df063c96e069476515,6932735b70b01b33123ce451,31,playOwnGame,,,,{"R":10,"P":5,"S":7,"T":8},7,8,10,5,HG,Purple,coop,,,,,,,
,,html-keyboard-response,8,2.0.0,175265,ypm9ekzamj,692638df063c96e069476515,6932735b70b01b33123ce451,31,playOwnGame,,,,{"R":10,"P":5,"S":10,"T":15},10,15,10,5,SG,Purple,coop,,,,,,,
,,html-keyboard-response,9,2.0.0,192006,ypm9ekzamj,692638df063c96e069476515,6932735b70b01b33123ce451,31,playOwnGame,,,,{"R":10,"P":5,"S":0,"T":8},0,8,10,5,SH,Purple,coop,,,,,,,
[{"page_index":0,"viewing_time":3475}],3475,instructions,10,2.1.0,195482,ypm9ekzamj,692638df063c96e069476515,6932735b70b01b33123ce451,31,,,,,,,,,,,,,,,,,,,
,,html-keyboard-response,11,2.0.0,205305,ypm9ekzamj,692638df063c96e069476515,6932735b70b01b33123ce451,31,socialPredictionGame,,,,{"R":10,"P":5,"S":0,"T":12},0,12,10,5,PD,Blue,coop,E.B.,opt_inv,coop,5,1,9821.59999999404,
,4868,html-keyboard-response,12,2.0.0,210173,ypm9ekzamj,692638df063c96e069476515,6932735b70b01b33123ce451,31,feedbackTrial,Enter,,,,,,,,,,,,,,,,,
                    <div style="text-align:center;">
                        <p style="color:green; font-size:24px;">Correct!</p><p>You now have 1 points.</p>
                        <p> Press any key to continue. </p>
                    </div>
                    
,,html-keyboard-response,13,2.0.0,218592,ypm9ekzamj,692638df063c96e069476515,6932735b70b01b33123ce451,31,socialPredictionGame,,,,{"R":10,"P":5,"S":3,"T":8},3,8,10,5,SH,Blue,coop,E.B.,opt_inv,def,7,0,8418.799999982119,
,2548,html-keyboard-response,14,2.0.0,221140,ypm9ekzamj,692638df063c96e069476515,6932735b70b01b33123ce451,31,feedbackTrial,Enter,,,,,,,,,,,,,,,,,
                    <div style="text-align:center;">
                        <p style="color:red; font-size:24px;">Incorrect</p><p>You still have 1 points.</p>
                        <p> Press any key to continue. </p>
                    </div>
                    
,,html-keyboard-response,15,2.0.0,232018,ypm9ekzamj,692638df063c96e069476515,6932735b70b01b33123ce451,31,socialPredictionGame,,,,{"R":10,"P":5,"S":7,"T":15},7,15,10,5,SG,Purple,def,E.B.,opt_inv,coop,8,0,10877.299999982119,
,2017,html-keyboard-response,16,2.0.0,234036,ypm9ekzamj,692638df063c96e069476515,6932735b70b01b33123ce451,31,feedbackTrial,Enter,,,,,,,,,,,,,,,,,
                    <div style="text-align:center;">
                        <p style="color:red; font-size:24px;">Incorrect</p><p>You still have 1 points.</p>
                        <p> Press any key to continue. </p>
                    </div>
                    
,,html-keyboard-response,17,2.0.0,240414,ypm9ekzamj,692638df063c96e069476515,6932735b70b01b33123ce451,31,socialPredictionGame,,,,{"R":10,"P":5,"S":10,"T":8},10,8,10,5,HG,Blue,coop,E.B.,opt_inv,def,7,0,6377.800000011921,
,1981,html-keyboard-response,18,2.0.0,242396,ypm9ekzamj,692638df063c96e069476515,6932735b70b01b33123ce451,31,feedbackTrial,Enter,,,,,,,,,,,,,,,,,
                    <div style="text-align:center;">
                        <p style="color:red; font-size:24px;">Incorrect</p><p>You still have 1 points.</p>
                        <p> Press any key to continue. </p>
                    </div>
                    
,,html-keyboard-response,19,2.0.0,263436,ypm9ekzamj,692638df063c96e069476515,6932735b70b01b33123ce451,31,socialPredictionGame,,,,{"R":10,"P":5,"S":10,"T":12},10,12,10,5,SG,Blue,coop,E.B.,opt_inv,coop,8,1,21040.20000001788,
,3463,html-keyboard-response,20,2.0.0,266900,ypm9ekzamj,692638df063c96e069476515,6932735b70b01b33123ce451,31,feedbackTrial,Enter,,,,,,,,,,,,,,,,,
                    <div style="text-align:center;">
                        <p style="color:green; font-size:24px;">Correct!</p><p>You now have 2 points.</p>
                        <p> Press any key to continue. </p>
                    </div>
                    
,,html-keyboard-response,21,2.0.0,275308,ypm9ekzamj,692638df063c96e069476515,6932735b70b01b33123ce451,31,socialPredictionGame,,,,{"R":10,"P":5,"S":7,"T":5},7,5,10,5,HG,Blue,coop,E.B.,opt_inv,def,6,0,8407.299999982119,
,2000,html-keyboard-response,22,2.0.0,277308,ypm9ekzamj,692638df063c96e069476515,6932735b70b01b33123ce451,31,feedbackTrial,Enter,,,,,,,,,,,,,,,,,
                    <div style="text-align:center;">
                        <p style="color:red; font-size:24px;">Incorrect</p><p>You still have 2 points.</p>
                        <p> Press any key to continue. </p>
                    </div>
                    
,,html-keyboard-response,23,2.0.0,281926,ypm9ekzamj,692638df063c96e069476515,6932735b70b01b33123ce451,31,socialPredictionGame,,,,{"R":10,"P":5,"S":7,"T":12},7,12,10,5,SG,Blue,coop,E.B.,opt_inv,coop,5,1,4617.5,
,1990,html-keyboard-response,24,2.0.0,283917,ypm9ekzamj,692638df063c96e069476515,6932735b70b01b33123ce451,31,feedbackTrial,Enter,,,,,,,,,,,,,,,,,
                    <div style="text-align:center;">
                        <p style="color:green; font-size:24px;">Correct!</p><p>You now have 3 points.</p>
                        <p> Press any key to continue. </p>
                    </div>
                    
,,html-keyboard-response,25,2.0.0,289504,ypm9ekzamj,692638df063c96e069476515,6932735b70b01b33123ce451,31,socialPredictionGame,,,,{"R":10,"P":5,"S":3,"T":5},3,5,10,5,SH,Purple,def,E.B.,opt_inv,def,6,1,5587.300000011921,
,1659,html-keyboard-response,26,2.0.0,291164,ypm9ekzamj,692638df063c96e069476515,6932735b70b01b33123ce451,31,feedbackTrial,Enter,,,,,,,,,,,,,,,,,
                    <div style="text-align:center;">
                        <p style="color:green; font-size:24px;">Correct!</p><p>You now have 4 points.</p>
                        <p> Press any key to continue. </p>
                    </div>
                    
,,html-keyboard-response,27,2.0.0,294694,ypm9ekzamj,692638df063c96e069476515,6932735b70b01b33123ce451,31,socialPredictionGame,,,,{"R":10,"P":5,"S":3,"T":12},3,12,10,5,PD,Blue,coop,E.B.,opt_inv,coop,5,1,3529.699999988079,
,1654,html-keyboard-response,28,2.0.0,296348,ypm9ekzamj,692638df063c96e069476515,6932735b70b01b33123ce451,31,feedbackTrial,Enter,,,,,,,,,,,,,,,,,
                    <div style="text-align:center;">
                        <p style="color:green; font-size:24px;">Correct!</p><p>You now have 5 points.</p>
                        <p> Press any key to continue. </p>
                    </div>
                    
,,html-keyboard-response,29,2.0.0,299030,ypm9ekzamj,692638df063c96e069476515,6932735b70b01b33123ce451,31,socialPredictionGame,,,,{"R":10,"P":5,"S":7,"T":8},7,8,10,5,HG,Blue,coop,E.B.,opt_inv,def,5,0,2680.5999999940395,
,2446,html-keyboard-response,30,2.0.0,301476,ypm9ekzamj,692638df063c96e069476515,6932735b70b01b33123ce451,31,feedbackTrial,Enter,,,,,,,,,,,,,,,,,
                    <div style="text-align:center;">
                        <p style="color:red; font-size:24px;">Incorrect</p><p>You still have 5 points.</p>
                        <p> Press any key to continue. </p>
                    </div>
                    
,,html-keyboard-response,31,2.0.0,304138,ypm9ekzamj,692638df063c96e069476515,6932735b70b01b33123ce451,31,socialPredictionGame,,,,{"R":10,"P":5,"S":0,"T":8},0,8,10,5,SH,Blue,coop,E.B.,opt_inv,def,5,0,2661.4000000059605,
,1618,html-keyboard-response,32,2.0.0,305756,ypm9ekzamj,692638df063c96e069476515,6932735b70b01b33123ce451,31,feedbackTrial,Enter,,,,,,,,,,,,,,,,,
                    <div style="text-align:center;">
                        <p style="color:red; font-size:24px;">Incorrect</p><p>You still have 5 points.</p>
                        <p> Press any key to continue. </p>
                    </div>
                    
,,html-keyboard-response,33,2.0.0,308704,ypm9ekzamj,692638df063c96e069476515,6932735b70b01b33123ce451,31,socialPredictionGame,,,,{"R":10,"P":5,"S":10,"T":15},10,15,10,5,SG,Blue,coop,E.B.,opt_inv,coop,5,1,2947.5,
,1420,html-keyboard-response,34,2.0.0,310124,ypm9ekzamj,692638df063c96e069476515,6932735b70b01b33123ce451,31,feedbackTrial,Enter,,,,,,,,,,,,,,,,,
                    <div style="text-align:center;">
                        <p style="color:green; font-size:24px;">Correct!</p><p>You now have 6 points.</p>
                        <p> Press any key to continue. </p>
                    </div>
                    
,,html-keyboard-response,35,2.0.0,312974,ypm9ekzamj,692638df063c96e069476515,6932735b70b01b33123ce451,31,socialPredictionGame,,,,{"R":10,"P":5,"S":0,"T":5},0,5,10,5,SH,Purple,def,E.B.,opt_inv,def,10,1,2848.899999976158,
,1462,html-keyboard-response,36,2.0.0,314436,ypm9ekzamj,692638df063c96e069476515,6932735b70b01b33123ce451,31,feedbackTrial,Enter,,,,,,,,,,,,,,,,,
                    <div style="text-align:center;">
                        <p style="color:green; font-size:24px;">Correct!</p><p>You now have 7 points.</p>
                        <p> Press any key to continue. </p>
                    </div>
                    
,,html-keyboard-response,37,2.0.0,317524,ypm9ekzamj,692638df063c96e069476515,6932735b70b01b33123ce451,31,socialPredictionGame,,,,{"R":10,"P":5,"S":0,"T":15},0,15,10,5,PD,Purple,def,E.B.,opt_inv,coop,10,0,3087.199999988079,
,1600,html-keyboard-response,38,2.0.0,319125,ypm9ekzamj,692638df063c96e069476515,6932735b70b01b33123ce451,31,feedbackTrial,Enter,,,,,,,,,,,,,,,,,
                    <div style="text-align:center;">
                        <p style="color:red; font-size:24px;">Incorrect</p><p>You still have 7 points.</p>
                        <p> Press any key to continue. </p>
                    </div>
                    
,,html-keyboard-response,39,2.0.0,323508,ypm9ekzamj,692638df063c96e069476515,6932735b70b01b33123ce451,31,socialPredictionGame,,,,{"R":10,"P":5,"S":10,"T":5},10,5,10,5,HG,Blue,coop,E.B.,opt_inv,def,5,0,4383.200000017881,
,1344,html-keyboard-response,40,2.0.0,324852,ypm9ekzamj,692638df063c96e069476515,6932735b70b01b33123ce451,31,feedbackTrial,Enter,,,,,,,,,,,,,,,,,
                    <div style="text-align:center;">
                        <p style="color:red; font-size:24px;">Incorrect</p><p>You still have 7 points.</p>
                        <p> Press any key to continue. </p>
                    </div>
                    
,,html-keyboard-response,41,2.0.0,328010,ypm9ekzamj,692638df063c96e069476515,6932735b70b01b33123ce451,31,socialPredictionGame,,,,{"R":10,"P":5,"S":3,"T":15},3,15,10,5,PD,Blue,coop,E.B.,opt_inv,coop,6,1,3157.2999999821186,
,1322,html-keyboard-response,42,2.0.0,329333,ypm9ekzamj,692638df063c96e069476515,6932735b70b01b33123ce451,31,feedbackTrial,Enter,,,,,,,,,,,,,,,,,
                    <div style="text-align:center;">
                        <p style="color:green; font-size:24px;">Correct!</p><p>You now have 8 points.</p>
                        <p> Press any key to continue. </p>
                    </div>
                    
,14555,survey-html-form,43,2.1.0,343889,ypm9ekzamj,692638df063c96e069476515,6932735b70b01b33123ce451,31,strategyPrediction,{"strategyPrediction":"blue purple purple pattern?"},,,,,,,,,,,,,,,,,
[{"page_index":0,"viewing_time":8979}],8979,instructions,44,2.1.0,352868,ypm9ekzamj,692638df063c96e069476515,6932735b70b01b33123ce451,31,,,,,,,,,,,,,,,,,,,
,,html-keyboard-response,45,2.0.0,364506,ypm9ekzamj,692638df063c96e069476515,6932735b70b01b33123ce451,31,socialPredictionGame,,,,{"R":10,"P":5,"S":10,"T":8},10,8,10,5,HG,Blue,coop,D.T.,pess_inv,def,5,0,11637.59999999404,
,5250,html-keyboard-response,46,2.0.0,369756,ypm9ekzamj,692638df063c96e069476515,6932735b70b01b33123ce451,31,feedbackTrial,Enter,,,,,,,,,,,,,,,,,
                    <div style="text-align:center;">
                        <p style="color:red; font-size:24px;">Incorrect</p><p>You still have 8 points.</p>
                        <p> Press any key to continue. </p>
                    </div>
                    
,,html-keyboard-response,47,2.0.0,372670,ypm9ekzamj,692638df063c96e069476515,6932735b70b01b33123ce451,31,socialPredictionGame,,,,{"R":10,"P":5,"S":0,"T":15},0,15,10,5,PD,Blue,coop,D.T.,pess_inv,coop,5,1,2913.300000011921,
,2613,html-keyboard-response,48,2.0.0,375284,ypm9ekzamj,692638df063c96e069476515,6932735b70b01b33123ce451,31,feedbackTrial,Enter,,,,,,,,,,,,,,,,,
                    <div style="text-align:center;">
                        <p style="color:green; font-size:24px;">Correct!</p><p>You now have 9 points.</p>
                        <p> Press any key to continue. </p>
                    </div>
                    
,,html-keyboard-response,49,2.0.0,378982,ypm9ekzamj,692638df063c96e069476515,6932735b70b01b33123ce451,31,socialPredictionGame,,,,{"R":10,"P":5,"S":3,"T":12},3,12,10,5,PD,Green,def,D.T.,pess_inv,coop,5,0,3697.9000000059605,
,1334,html-keyboard-response,50,2.0.0,380316,ypm9ekzamj,692638df063c96e069476515,6932735b70b01b33123ce451,31,feedbackTrial,Enter,,,,,,,,,,,,,,,,,
                    <div style="text-align:center;">
                        <p style="color:red; font-size:24px;">Incorrect</p><p>You still have 9 points.</p>
                        <p> Press any key to continue. </p>
                    </div>
                    
,,html-keyboard-response,51,2.0.0,385133,ypm9ekzamj,692638df063c96e069476515,6932735b70b01b33123ce451,31,socialPredictionGame,,,,{"R":10,"P":5,"S":0,"T":5},0,5,10,5,SH,Green,def,D.T.,pess_inv,coop,5,0,4816.4000000059605,
,1511,html-keyboard-response,52,2.0.0,386644,ypm9ekzamj,692638df063c96e069476515,6932735b70b01b33123ce451,31,feedbackTrial,Enter,,,,,,,,,,,,,,,,,
                    <div style="text-align:center;">
                        <p style="color:red; font-size:24px;">Incorrect</p><p>You still have 9 points.</p>
                        <p> Press any key to continue. </p>
                    </div>
                    
,,html-keyboard-response,53,2.0.0,388884,ypm9ekzamj,692638df063c96e069476515,6932735b70b01b33123ce451,31,socialPredictionGame,,,,{"R":10,"P":5,"S":7,"T":12},7,12,10,5,SG,Blue,coop,D.T.,pess_inv,def,5,0,2239.4000000059605,
,6175,html-keyboard-response,54,2.0.0,395060,ypm9ekzamj,692638df063c96e069476515,6932735b70b01b33123ce451,31,feedbackTrial,Enter,,,,,,,,,,,,,,,,,
                    <div style="text-align:center;">
                        <p style="color:red; font-size:24px;">Incorrect</p><p>You still have 9 points.</p>
                        <p> Press any key to continue. </p>
                    </div>
                    
,,html-keyboard-response,55,2.0.0,397736,ypm9ekzamj,692638df063c96e069476515,6932735b70b01b33123ce451,31,socialPredictionGame,,,,{"R":10,"P":5,"S":10,"T":5},10,5,10,5,HG,Blue,coop,D.T.,pess_inv,def,5,0,2675.4000000059605,
,1532,html-keyboard-response,56,2.0.0,399268,ypm9ekzamj,692638df063c96e069476515,6932735b70b01b33123ce451,31,feedbackTrial,Enter,,,,,,,,,,,,,,,,,
                    <div style="text-align:center;">
                        <p style="color:red; font-size:24px;">Incorrect</p><p>You still have 9 points.</p>
                        <p> Press any key to continue. </p>
                    </div>
                    
,,html-keyboard-response,57,2.0.0,401972,ypm9ekzamj,692638df063c96e069476515,6932735b70b01b33123ce451,31,socialPredictionGame,,,,{"R":10,"P":5,"S":3,"T":5},3,5,10,5,SH,Blue,coop,D.T.,pess_inv,coop,5,1,2703.5999999940395,
,1807,html-keyboard-response,58,2.0.0,403780,ypm9ekzamj,692638df063c96e069476515,6932735b70b01b33123ce451,31,feedbackTrial,Enter,,,,,,,,,,,,,,,,,
                    <div style="text-align:center;">
                        <p style="color:green; font-size:24px;">Correct!</p><p>You now have 10 points.</p>
                        <p> Press any key to continue. </p>
                    </div>
                    
,,html-keyboard-response,59,2.0.0,407284,ypm9ekzamj,692638df063c96e069476515,6932735b70b01b33123ce451,31,socialPredictionGame,,,,{"R":10,"P":5,"S":7,"T":15},7,15,10,5,SG,Green,def,D.T.,pess_inv,def,5,1,3503.5999999940395,
,1704,html-keyboard-response,60,2.0.0,408988,ypm9ekzamj,692638df063c96e069476515,6932735b70b01b33123ce451,31,feedbackTrial,Enter,,,,,,,,,,,,,,,,,
                    <div style="text-align:center;">
                        <p style="color:green; font-size:24px;">Correct!</p><p>You now have 11 points.</p>
                        <p> Press any key to continue. </p>
                    </div>
                    
,,html-keyboard-response,61,2.0.0,411994,ypm9ekzamj,692638df063c96e069476515,6932735b70b01b33123ce451,31,socialPredictionGame,,,,{"R":10,"P":5,"S":3,"T":8},3,8,10,5,SH,Green,def,D.T.,pess_inv,coop,5,0,3005.399999976158,
,1618,html-keyboard-response,62,2.0.0,413612,ypm9ekzamj,692638df063c96e069476515,6932735b70b01b33123ce451,31,feedbackTrial,Enter,,,,,,,,,,,,,,,,,
                    <div style="text-align:center;">
                        <p style="color:red; font-size:24px;">Incorrect</p><p>You still have 11 points.</p>
                        <p> Press any key to continue. </p>
                    </div>
                    
,,html-keyboard-response,63,2.0.0,416472,ypm9ekzamj,692638df063c96e069476515,6932735b70b01b33123ce451,31,socialPredictionGame,,,,{"R":10,"P":5,"S":10,"T":12},10,12,10,5,SG,Green,def,D.T.,pess_inv,def,6,1,2858.9000000059605,
,1572,html-keyboard-response,64,2.0.0,418044,ypm9ekzamj,692638df063c96e069476515,6932735b70b01b33123ce451,31,feedbackTrial,Enter,,,,,,,,,,,,,,,,,
                    <div style="text-align:center;">
                        <p style="color:green; font-size:24px;">Correct!</p><p>You now have 12 points.</p>
                        <p> Press any key to continue. </p>
                    </div>
                    
,,html-keyboard-response,65,2.0.0,420886,ypm9ekzamj,692638df063c96e069476515,6932735b70b01b33123ce451,31,socialPredictionGame,,,,{"R":10,"P":5,"S":0,"T":12},0,12,10,5,PD,Blue,coop,D.T.,pess_inv,coop,5,1,2841.300000011921,
,1430,html-keyboard-response,66,2.0.0,422317,ypm9ekzamj,692638df063c96e069476515,6932735b70b01b33123ce451,31,feedbackTrial,Enter,,,,,,,,,,,,,,,,,
                    <div style="text-align:center;">
                        <p style="color:green; font-size:24px;">Correct!</p><p>You now have 13 points.</p>
                        <p> Press any key to continue. </p>
                    </div>
                    
,,html-keyboard-response,67,2.0.0,428608,ypm9ekzamj,692638df063c96e069476515,6932735b70b01b33123ce451,31,socialPredictionGame,,,,{"R":10,"P":5,"S":7,"T":8},7,8,10,5,HG,Blue,coop,D.T.,pess_inv,def,5,0,6291.200000017881,
,2236,html-keyboard-response,68,2.0.0,430844,ypm9ekzamj,692638df063c96e069476515,6932735b70b01b33123ce451,31,feedbackTrial,Enter,,,,,,,,,,,,,,,,,
                    <div style="text-align:center;">
                        <p style="color:red; font-size:24px;">Incorrect</p><p>You still have 13 points.</p>
                        <p> Press any key to continue. </p>
                    </div>
                    
,,html-keyboard-response,69,2.0.0,434128,ypm9ekzamj,692638df063c96e069476515,6932735b70b01b33123ce451,31,socialPredictionGame,,,,{"R":10,"P":5,"S":7,"T":5},7,5,10,5,HG,Blue,coop,D.T.,pess_inv,def,5,0,3283.699999988079,
,2099,html-keyboard-response,70,2.0.0,436228,ypm9ekzamj,692638df063c96e069476515,6932735b70b01b33123ce451,31,feedbackTrial,Enter,,,,,,,,,,,,,,,,,
                    <div style="text-align:center;">
                        <p style="color:red; font-size:24px;">Incorrect</p><p>You still have 13 points.</p>
                        <p> Press any key to continue. </p>
                    </div>
                    
,,html-keyboard-response,71,2.0.0,438990,ypm9ekzamj,692638df063c96e069476515,6932735b70b01b33123ce451,31,socialPredictionGame,,,,{"R":10,"P":5,"S":0,"T":8},0,8,10,5,SH,Blue,coop,D.T.,pess_inv,coop,5,1,2761.0999999940395,
,1606,html-keyboard-response,72,2.0.0,440596,ypm9ekzamj,692638df063c96e069476515,6932735b70b01b33123ce451,31,feedbackTrial,Enter,,,,,,,,,,,,,,,,,
                    <div style="text-align:center;">
                        <p style="color:green; font-size:24px;">Correct!</p><p>You now have 14 points.</p>
                        <p> Press any key to continue. </p>
                    </div>
                    
,,html-keyboard-response,73,2.0.0,443356,ypm9ekzamj,692638df063c96e069476515,6932735b70b01b33123ce451,31,socialPredictionGame,,,,{"R":10,"P":5,"S":3,"T":15},3,15,10,5,PD,Green,def,D.T.,pess_inv,coop,5,0,2759.199999988079,
,2312,html-keyboard-response,74,2.0.0,445668,ypm9ekzamj,692638df063c96e069476515,6932735b70b01b33123ce451,31,feedbackTrial,Enter,,,,,,,,,,,,,,,,,
                    <div style="text-align:center;">
                        <p style="color:red; font-size:24px;">Incorrect</p><p>You still have 14 points.</p>
                        <p> Press any key to continue. </p>
                    </div>
                    
,,html-keyboard-response,75,2.0.0,450758,ypm9ekzamj,692638df063c96e069476515,6932735b70b01b33123ce451,31,socialPredictionGame,,,,{"R":10,"P":5,"S":10,"T":15},10,15,10,5,SG,Green,def,D.T.,pess_inv,def,6,1,5088.799999982119,
,1901,html-keyboard-response,76,2.0.0,452660,ypm9ekzamj,692638df063c96e069476515,6932735b70b01b33123ce451,31,feedbackTrial,Enter,,,,,,,,,,,,,,,,,
                    <div style="text-align:center;">
                        <p style="color:green; font-size:24px;">Correct!</p><p>You now have 15 points.</p>
                        <p> Press any key to continue. </p>
                    </div>
                    
,10170,survey-html-form,77,2.1.0,462830,ypm9ekzamj,692638df063c96e069476515,6932735b70b01b33123ce451,31,strategyPrediction,{"strategyPrediction":"blue blue green green"},,,,,,,,,,,,,,,,,
[{"page_index":0,"viewing_time":2768}],2768,instructions,78,2.1.0,465598,ypm9ekzamj,692638df063c96e069476515,6932735b70b01b33123ce451,31,,,,,,,,,,,,,,,,,,,
,,html-keyboard-response,79,2.0.0,473268,ypm9ekzamj,692638df063c96e069476515,6932735b70b01b33123ce451,31,socialPredictionGame,,,,{"R":10,"P":5,"S":3,"T":8},3,8,10,5,SH,Purple,coop,F.A.,opt_nat,coop,7,1,7669.699999988079,
,3855,html-keyboard-response,80,2.0.0,477124,ypm9ekzamj,692638df063c96e069476515,6932735b70b01b33123ce451,31,feedbackTrial,Enter,,,,,,,,,,,,,,,,,
                    <div style="text-align:center;">
                        <p style="color:green; font-size:24px;">Correct!</p><p>You now have 16 points.</p>
                        <p> Press any key to continue. </p>
                    </div>
                    
,,html-keyboard-response,81,2.0.0,480422,ypm9ekzamj,692638df063c96e069476515,6932735b70b01b33123ce451,31,socialPredictionGame,,,,{"R":10,"P":5,"S":3,"T":5},3,5,10,5,SH,Purple,coop,F.A.,opt_nat,coop,7,1,3297.4000000059605,
,2677,html-keyboard-response,82,2.0.0,483099,ypm9ekzamj,692638df063c96e069476515,6932735b70b01b33123ce451,31,feedbackTrial,Enter,,,,,,,,,,,,,,,,,
                    <div style="text-align:center;">
                        <p style="color:green; font-size:24px;">Correct!</p><p>You now have 17 points.</p>
                        <p> Press any key to continue. </p>
                    </div>
                    
,,html-keyboard-response,83,2.0.0,485924,ypm9ekzamj,692638df063c96e069476515,6932735b70b01b33123ce451,31,socialPredictionGame,,,,{"R":10,"P":5,"S":3,"T":15},3,15,10,5,PD,Green,def,F.A.,opt_nat,def,5,1,2824.5999999940395,
,1503,html-keyboard-response,84,2.0.0,487428,ypm9ekzamj,692638df063c96e069476515,6932735b70b01b33123ce451,31,feedbackTrial,Enter,,,,,,,,,,,,,,,,,
                    <div style="text-align:center;">
                        <p style="color:green; font-size:24px;">Correct!</p><p>You now have 18 points.</p>
                        <p> Press any key to continue. </p>
                    </div>
                    
,,html-keyboard-response,85,2.0.0,490594,ypm9ekzamj,692638df063c96e069476515,6932735b70b01b33123ce451,31,socialPredictionGame,,,,{"R":10,"P":5,"S":10,"T":12},10,12,10,5,SG,Green,def,F.A.,opt_nat,def,5,1,3165.5999999940395,
,1281,html-keyboard-response,86,2.0.0,491876,ypm9ekzamj,692638df063c96e069476515,6932735b70b01b33123ce451,31,feedbackTrial,Enter,,,,,,,,,,,,,,,,,
                    <div style="text-align:center;">
                        <p style="color:green; font-size:24px;">Correct!</p><p>You now have 19 points.</p>
                        <p> Press any key to continue. </p>
                    </div>
                    
,,html-keyboard-response,87,2.0.0,494832,ypm9ekzamj,692638df063c96e069476515,6932735b70b01b33123ce451,31,socialPredictionGame,,,,{"R":10,"P":5,"S":10,"T":8},10,8,10,5,HG,Purple,coop,F.A.,opt_nat,coop,7,1,2955.5999999940395,
,1259,html-keyboard-response,88,2.0.0,496091,ypm9ekzamj,692638df063c96e069476515,6932735b70b01b33123ce451,31,feedbackTrial,Enter,,,,,,,,,,,,,,,,,
                    <div style="text-align:center;">
                        <p style="color:green; font-size:24px;">Correct!</p><p>You now have 20 points.</p>
                        <p> Press any key to continue. </p>
                    </div>
                    
,,html-keyboard-response,89,2.0.0,499014,ypm9ekzamj,692638df063c96e069476515,6932735b70b01b33123ce451,31,socialPredictionGame,,,,{"R":10,"P":5,"S":0,"T":15},0,15,10,5,PD,Purple,coop,F.A.,opt_nat,def,7,0,2922.4000000059605,
,2540,html-keyboard-response,90,2.0.0,501555,ypm9ekzamj,692638df063c96e069476515,6932735b70b01b33123ce451,31,feedbackTrial,Enter,,,,,,,,,,,,,,,,,
                    <div style="text-align:center;">
                        <p style="color:red; font-size:24px;">Incorrect</p><p>You still have 20 points.</p>
                        <p> Press any key to continue. </p>
                    </div>
                    
,,html-keyboard-response,91,2.0.0,504830,ypm9ekzamj,692638df063c96e069476515,6932735b70b01b33123ce451,31,socialPredictionGame,,,,{"R":10,"P":5,"S":10,"T":15},10,15,10,5,SG,Green,def,F.A.,opt_nat,def,7,1,3273.9000000059605,
,1438,html-keyboard-response,92,2.0.0,506268,ypm9ekzamj,692638df063c96e069476515,6932735b70b01b33123ce451,31,feedbackTrial,Enter,,,,,,,,,,,,,,,,,
                    <div style="text-align:center;">
                        <p style="color:green; font-size:24px;">Correct!</p><p>You now have 21 points.</p>
                        <p> Press any key to continue. </p>
                    </div>
                    
,,html-keyboard-response,93,2.0.0,508786,ypm9ekzamj,692638df063c96e069476515,6932735b70b01b33123ce451,31,socialPredictionGame,,,,{"R":10,"P":5,"S":7,"T":15},7,15,10,5,SG,Purple,coop,F.A.,opt_nat,def,7,0,2517.199999988079,
,1466,html-keyboard-response,94,2.0.0,510252,ypm9ekzamj,692638df063c96e069476515,6932735b70b01b33123ce451,31,feedbackTrial,Enter,,,,,,,,,,,,,,,,,
                    <div style="text-align:center;">
                        <p style="color:red; font-size:24px;">Incorrect</p><p>You still have 21 points.</p>
                        <p> Press any key to continue. </p>
                    </div>
                    
,,html-keyboard-response,95,2.0.0,513962,ypm9ekzamj,692638df063c96e069476515,6932735b70b01b33123ce451,31,socialPredictionGame,,,,{"R":10,"P":5,"S":7,"T":12},7,12,10,5,SG,Purple,coop,F.A.,opt_nat,def,7,0,3709,
,1402,html-keyboard-response,96,2.0.0,515364,ypm9ekzamj,692638df063c96e069476515,6932735b70b01b33123ce451,31,feedbackTrial,Enter,,,,,,,,,,,,,,,,,
                    <div style="text-align:center;">
                        <p style="color:red; font-size:24px;">Incorrect</p><p>You still have 21 points.</p>
                        <p> Press any key to continue. </p>
                    </div>
                    
,,html-keyboard-response,97,2.0.0,518328,ypm9ekzamj,692638df063c96e069476515,6932735b70b01b33123ce451,31,socialPredictionGame,,,,{"R":10,"P":5,"S":7,"T":8},7,8,10,5,HG,Green,def,F.A.,opt_nat,coop,7,0,2963.7999999821186,
,1380,html-keyboard-response,98,2.0.0,519708,ypm9ekzamj,692638df063c96e069476515,6932735b70b01b33123ce451,31,feedbackTrial,Enter,,,,,,,,,,,,,,,,,
                    <div style="text-align:center;">
                        <p style="color:red; font-size:24px;">Incorrect</p><p>You still have 21 points.</p>
                        <p> Press any key to continue. </p>
                    </div>
                    
,,html-keyboard-response,99,2.0.0,522116,ypm9ekzamj,692638df063c96e069476515,6932735b70b01b33123ce451,31,socialPredictionGame,,,,{"R":10,"P":5,"S":0,"T":8},0,8,10,5,SH,Green,def,F.A.,opt_nat,coop,7,0,2407.600000023842,
,1343,html-keyboard-response,100,2.0.0,523460,ypm9ekzamj,692638df063c96e069476515,6932735b70b01b33123ce451,31,feedbackTrial,Enter,,,,,,,,,,,,,,,,,
                    <div style="text-align:center;">
                        <p style="color:red; font-size:24px;">Incorrect</p><p>You still have 21 points.</p>
                        <p> Press any key to continue. </p>
                    </div>
                    
,,html-keyboard-response,101,2.0.0,527068,ypm9ekzamj,692638df063c96e069476515,6932735b70b01b33123ce451,31,socialPredictionGame,,,,{"R":10,"P":5,"S":10,"T":5},10,5,10,5,HG,Purple,coop,F.A.,opt_nat,coop,9,1,3607.7000000178814,
,2936,html-keyboard-response,102,2.0.0,530004,ypm9ekzamj,692638df063c96e069476515,6932735b70b01b33123ce451,31,feedbackTrial,Enter,,,,,,,,,,,,,,,,,
                    <div style="text-align:center;">
                        <p style="color:green; font-size:24px;">Correct!</p><p>You now have 22 points.</p>
                        <p> Press any key to continue. </p>
                    </div>
                    
,,html-keyboard-response,103,2.0.0,532794,ypm9ekzamj,692638df063c96e069476515,6932735b70b01b33123ce451,31,socialPredictionGame,,,,{"R":10,"P":5,"S":0,"T":5},0,5,10,5,SH,Purple,coop,F.A.,opt_nat,coop,9,1,2788.5999999940395,
,1610,html-keyboard-response,104,2.0.0,534404,ypm9ekzamj,692638df063c96e069476515,6932735b70b01b33123ce451,31,feedbackTrial,Enter,,,,,,,,,,,,,,,,,
                    <div style="text-align:center;">
                        <p style="color:green; font-size:24px;">Correct!</p><p>You now have 23 points.</p>
                        <p> Press any key to continue. </p>
                    </div>
                    
,,html-keyboard-response,105,2.0.0,537048,ypm9ekzamj,692638df063c96e069476515,6932735b70b01b33123ce451,31,socialPredictionGame,,,,{"R":10,"P":5,"S":3,"T":12},3,12,10,5,PD,Green,def,F.A.,opt_nat,def,10,1,2643.5999999940395,
,1348,html-keyboard-response,106,2.0.0,538396,ypm9ekzamj,692638df063c96e069476515,6932735b70b01b33123ce451,31,feedbackTrial,Enter,,,,,,,,,,,,,,,,,
                    <div style="text-align:center;">
                        <p style="color:green; font-size:24px;">Correct!</p><p>You now have 24 points.</p>
                        <p> Press any key to continue. </p>
                    </div>
                    
,,html-keyboard-response,107,2.0.0,541510,ypm9ekzamj,692638df063c96e069476515,6932735b70b01b33123ce451,31,socialPredictionGame,,,,{"R":10,"P":5,"S":7,"T":5},7,5,10,5,HG,Green,def,F.A.,opt_nat,coop,10,0,3112.9000000059605,
,4237,html-keyboard-response,108,2.0.0,545748,ypm9ekzamj,692638df063c96e069476515,6932735b70b01b33123ce451,31,feedbackTrial,Enter,,,,,,,,,,,,,,,,,
                    <div style="text-align:center;">
                        <p style="color:red; font-size:24px;">Incorrect</p><p>You still have 24 points.</p>
                        <p> Press any key to continue. </p>
                    </div>
                    
,,html-keyboard-response,109,2.0.0,549554,ypm9ekzamj,692638df063c96e069476515,6932735b70b01b33123ce451,31,socialPredictionGame,,,,{"R":10,"P":5,"S":0,"T":12},0,12,10,5,PD,Purple,coop,F.A.,opt_nat,def,8,0,3806,
,1313,html-keyboard-response,110,2.0.0,550868,ypm9ekzamj,692638df063c96e069476515,6932735b70b01b33123ce451,31,feedbackTrial,Enter,,,,,,,,,,,,,,,,,
                    <div style="text-align:center;">
                        <p style="color:red; font-size:24px;">Incorrect</p><p>You still have 24 points.</p>
                        <p> Press any key to continue. </p>
                    </div>
                    
,14969,survey-html-form,111,2.1.0,565838,ypm9ekzamj,692638df063c96e069476515,6932735b70b01b33123ce451,31,strategyPrediction,{"strategyPrediction":"purple purple green green purple\n"},,,,,,,,,,,,,,,,,
[{"page_index":0,"viewing_time":3381}],3381,instructions,112,2.1.0,569220,ypm9ekzamj,692638df063c96e069476515,6932735b70b01b33123ce451,31,,,,,,,,,,,,,,,,,,,
,,html-keyboard-response,113,2.0.0,574994,ypm9ekzamj,692638df063c96e069476515,6932735b70b01b33123ce451,31,socialPredictionGame,,,,{"R":10,"P":5,"S":0,"T":5},0,5,10,5,SH,Red,coop,G.P.,pess_nat,def,7,0,5773.699999988079,
,4985,html-keyboard-response,114,2.0.0,579980,ypm9ekzamj,692638df063c96e069476515,6932735b70b01b33123ce451,31,feedbackTrial,Enter,,,,,,,,,,,,,,,,,
                    <div style="text-align:center;">
                        <p style="color:red; font-size:24px;">Incorrect</p><p>You still have 24 points.</p>
                        <p> Press any key to continue. </p>
                    </div>
                    
,,html-keyboard-response,115,2.0.0,583662,ypm9ekzamj,692638df063c96e069476515,6932735b70b01b33123ce451,31,socialPredictionGame,,,,{"R":10,"P":5,"S":7,"T":8},7,8,10,5,HG,Red,coop,G.P.,pess_nat,coop,7,1,3681.9000000059605,
,1637,html-keyboard-response,116,2.0.0,585300,ypm9ekzamj,692638df063c96e069476515,6932735b70b01b33123ce451,31,feedbackTrial,Enter,,,,,,,,,,,,,,,,,
                    <div style="text-align:center;">
                        <p style="color:green; font-size:24px;">Correct!</p><p>You now have 25 points.</p>
                        <p> Press any key to continue. </p>
                    </div>
                    
,,html-keyboard-response,117,2.0.0,588068,ypm9ekzamj,692638df063c96e069476515,6932735b70b01b33123ce451,31,socialPredictionGame,,,,{"R":10,"P":5,"S":0,"T":15},0,15,10,5,PD,Red,coop,G.P.,pess_nat,def,8,0,2766.9000000059605,
,1680,html-keyboard-response,118,2.0.0,589748,ypm9ekzamj,692638df063c96e069476515,6932735b70b01b33123ce451,31,feedbackTrial,Enter,,,,,,,,,,,,,,,,,
                    <div style="text-align:center;">
                        <p style="color:red; font-size:24px;">Incorrect</p><p>You still have 25 points.</p>
                        <p> Press any key to continue. </p>
                    </div>
                    
,,html-keyboard-response,119,2.0.0,592642,ypm9ekzamj,692638df063c96e069476515,6932735b70b01b33123ce451,31,socialPredictionGame,,,,{"R":10,"P":5,"S":3,"T":8},3,8,10,5,SH,Red,coop,G.P.,pess_nat,def,7,0,2893.699999988079,
,7290,html-keyboard-response,120,2.0.0,599933,ypm9ekzamj,692638df063c96e069476515,6932735b70b01b33123ce451,31,feedbackTrial,Enter,,,,,,,,,,,,,,,,,
                    <div style="text-align:center;">
                        <p style="color:red; font-size:24px;">Incorrect</p><p>You still have 25 points.</p>
                        <p> Press any key to continue. </p>
                    </div>
                    
,,html-keyboard-response,121,2.0.0,602768,ypm9ekzamj,692638df063c96e069476515,6932735b70b01b33123ce451,31,socialPredictionGame,,,,{"R":10,"P":5,"S":7,"T":5},7,5,10,5,HG,Red,coop,G.P.,pess_nat,coop,8,1,2835,
,6891,html-keyboard-response,122,2.0.0,609660,ypm9ekzamj,692638df063c96e069476515,6932735b70b01b33123ce451,31,feedbackTrial,Enter,,,,,,,,,,,,,,,,,
                    <div style="text-align:center;">
                        <p style="color:green; font-size:24px;">Correct!</p><p>You now have 26 points.</p>
                        <p> Press any key to continue. </p>
                    </div>
                    
,,html-keyboard-response,123,2.0.0,612750,ypm9ekzamj,692638df063c96e069476515,6932735b70b01b33123ce451,31,socialPredictionGame,,,,{"R":10,"P":5,"S":10,"T":8},10,8,10,5,HG,Red,coop,G.P.,pess_nat,coop,8,1,3089.4000000059605,
,1566,html-keyboard-response,124,2.0.0,614316,ypm9ekzamj,692638df063c96e069476515,6932735b70b01b33123ce451,31,feedbackTrial,Enter,,,,,,,,,,,,,,,,,
                    <div style="text-align:center;">
                        <p style="color:green; font-size:24px;">Correct!</p><p>You now have 27 points.</p>
                        <p> Press any key to continue. </p>
                    </div>
                    
,,html-keyboard-response,125,2.0.0,617130,ypm9ekzamj,692638df063c96e069476515,6932735b70b01b33123ce451,31,socialPredictionGame,,,,{"R":10,"P":5,"S":3,"T":15},3,15,10,5,PD,Purple,def,G.P.,pess_nat,def,7,1,2813.4000000059605,
,3177,html-keyboard-response,126,2.0.0,620308,ypm9ekzamj,692638df063c96e069476515,6932735b70b01b33123ce451,31,feedbackTrial,Enter,,,,,,,,,,,,,,,,,
                    <div style="text-align:center;">
                        <p style="color:green; font-size:24px;">Correct!</p><p>You now have 28 points.</p>
                        <p> Press any key to continue. </p>
                    </div>
                    
,,html-keyboard-response,127,2.0.0,623595,ypm9ekzamj,692638df063c96e069476515,6932735b70b01b33123ce451,31,socialPredictionGame,,,,{"R":10,"P":5,"S":7,"T":15},7,15,10,5,SG,Purple,def,G.P.,pess_nat,coop,7,0,3286.5,
,2096,html-keyboard-response,128,2.0.0,625692,ypm9ekzamj,692638df063c96e069476515,6932735b70b01b33123ce451,31,feedbackTrial,Enter,,,,,,,,,,,,,,,,,
                    <div style="text-align:center;">
                        <p style="color:red; font-size:24px;">Incorrect</p><p>You still have 28 points.</p>
                        <p> Press any key to continue. </p>
                    </div>
                    
,,html-keyboard-response,129,2.0.0,628618,ypm9ekzamj,692638df063c96e069476515,6932735b70b01b33123ce451,31,socialPredictionGame,,,,{"R":10,"P":5,"S":10,"T":12},10,12,10,5,SG,Purple,def,G.P.,pess_nat,coop,7,0,2925.0999999940395,
,3538,html-keyboard-response,130,2.0.0,632156,ypm9ekzamj,692638df063c96e069476515,6932735b70b01b33123ce451,31,feedbackTrial,Enter,,,,,,,,,,,,,,,,,
                    <div style="text-align:center;">
                        <p style="color:red; font-size:24px;">Incorrect</p><p>You still have 28 points.</p>
                        <p> Press any key to continue. </p>
                    </div>
                    
,,html-keyboard-response,131,2.0.0,635420,ypm9ekzamj,692638df063c96e069476515,6932735b70b01b33123ce451,31,socialPredictionGame,,,,{"R":10,"P":5,"S":0,"T":12},0,12,10,5,PD,Red,coop,G.P.,pess_nat,def,7,0,3263,
,1296,html-keyboard-response,132,2.0.0,636716,ypm9ekzamj,692638df063c96e069476515,6932735b70b01b33123ce451,31,feedbackTrial,Enter,,,,,,,,,,,,,,,,,
                    <div style="text-align:center;">
                        <p style="color:red; font-size:24px;">Incorrect</p><p>You still have 28 points.</p>
                        <p> Press any key to continue. </p>
                    </div>
                    
,,html-keyboard-response,133,2.0.0,642862,ypm9ekzamj,692638df063c96e069476515,6932735b70b01b33123ce451,31,socialPredictionGame,,,,{"R":10,"P":5,"S":10,"T":5},10,5,10,5,HG,Red,coop,G.P.,pess_nat,coop,7,1,6145.200000017881,
,3958,html-keyboard-response,134,2.0.0,646820,ypm9ekzamj,692638df063c96e069476515,6932735b70b01b33123ce451,31,feedbackTrial, ,,,,,,,,,,,,,,,,,
                    <div style="text-align:center;">
                        <p style="color:green; font-size:24px;">Correct!</p><p>You now have 29 points.</p>
                        <p> Press any key to continue. </p>
                    </div>
                    
,,html-keyboard-response,135,2.0.0,649094,ypm9ekzamj,692638df063c96e069476515,6932735b70b01b33123ce451,31,socialPredictionGame,,,,{"R":10,"P":5,"S":3,"T":5},3,5,10,5,SH,Red,coop,G.P.,pess_nat,def,7,0,2273.5,
,1558,html-keyboard-response,136,2.0.0,650653,ypm9ekzamj,692638df063c96e069476515,6932735b70b01b33123ce451,31,feedbackTrial,Enter,,,,,,,,,,,,,,,,,
                    <div style="text-align:center;">
                        <p style="color:red; font-size:24px;">Incorrect</p><p>You still have 29 points.</p>
                        <p> Press any key to continue. </p>
                    </div>
                    
,,html-keyboard-response,137,2.0.0,653500,ypm9ekzamj,692638df063c96e069476515,6932735b70b01b33123ce451,31,socialPredictionGame,,,,{"R":10,"P":5,"S":7,"T":12},7,12,10,5,SG,Red,coop,G.P.,pess_nat,coop,10,1,2846.7000000178814,
,1407,html-keyboard-response,138,2.0.0,654908,ypm9ekzamj,692638df063c96e069476515,6932735b70b01b33123ce451,31,feedbackTrial,Enter,,,,,,,,,,,,,,,,,
                    <div style="text-align:center;">
                        <p style="color:green; font-size:24px;">Correct!</p><p>You now have 30 points.</p>
                        <p> Press any key to continue. </p>
                    </div>
                    
,,html-keyboard-response,139,2.0.0,657704,ypm9ekzamj,692638df063c96e069476515,6932735b70b01b33123ce451,31,socialPredictionGame,,,,{"R":10,"P":5,"S":0,"T":8},0,8,10,5,SH,Red,coop,G.P.,pess_nat,def,10,0,2795.9000000059605,
,5740,html-keyboard-response,140,2.0.0,663444,ypm9ekzamj,692638df063c96e069476515,6932735b70b01b33123ce451,31,feedbackTrial,Enter,,,,,,,,,,,,,,,,,
                    <div style="text-align:center;">
                        <p style="color:red; font-size:24px;">Incorrect</p><p>You still have 30 points.</p>
                        <p> Press any key to continue. </p>
                    </div>
                    
,,html-keyboard-response,141,2.0.0,666950,ypm9ekzamj,692638df063c96e069476515,6932735b70b01b33123ce451,31,socialPredictionGame,,,,{"R":10,"P":5,"S":3,"T":12},3,12,10,5,PD,Red,coop,G.P.,pess_nat,def,9,0,3505.5,
,2085,html-keyboard-response,142,2.0.0,669036,ypm9ekzamj,692638df063c96e069476515,6932735b70b01b33123ce451,31,feedbackTrial,Enter,,,,,,,,,,,,,,,,,
                    <div style="text-align:center;">
                        <p style="color:red; font-size:24px;">Incorrect</p><p>You still have 30 points.</p>
                        <p> Press any key to continue. </p>
                    </div>
                    
,,html-keyboard-response,143,2.0.0,671298,ypm9ekzamj,692638df063c96e069476515,6932735b70b01b33123ce451,31,socialPredictionGame,,,,{"R":10,"P":5,"S":10,"T":15},10,15,10,5,SG,Red,coop,G.P.,pess_nat,coop,10,1,2261.5,
,1346,html-keyboard-response,144,2.0.0,672644,ypm9ekzamj,692638df063c96e069476515,6932735b70b01b33123ce451,31,feedbackTrial,Enter,,,,,,,,,,,,,,,,,
                    <div style="text-align:center;">
                        <p style="color:green; font-size:24px;">Correct!</p><p>You now have 31 points.</p>
                        <p> Press any key to continue. </p>
                    </div>
                    
,15853,survey-html-form,145,2.1.0,688498,ypm9ekzamj,692638df063c96e069476515,6932735b70b01b33123ce451,31,strategyPrediction,{"strategyPrediction":"red red purple red purple red red\n"},,,,,,,,,,,,,,,,,
,6872,survey-html-form,146,2.1.0,695370,ypm9ekzamj,692638df063c96e069476515,6932735b70b01b33123ce451,31,demographics,{"age":"55","gender":"Female"},,,,,,,,,,,,,,,,,
,19001,survey-html-form,147,2.1.0,714373,ypm9ekzamj,692638df063c96e069476515,6932735b70b01b33123ce451,31,technical,{"technical":"nope","feedback":"Thanks for selecting me to participate.  It was fun!"},,,,,,,,,,,,,,,,,
